experiment,subject,uniqueID,block,trial,trial_cumulative,age,gender,color_cond_blocking,color_history,shape_type,set_size,distractor,rt,acc,target_orient,response_key,response_made,iti,target_color,target_item,distractor_item,target_X,target_Y,distractor_X,distractor_Y,item1_X,item1_Y,item2_X,item2_Y,item3_X,item3_Y,item4_X,item4_Y,item5_X,item5_Y,item6_X,item6_Y,item1_shape,item2_shape,item3_shape,item4_shape,item5_shape,item6_shape,item1_line,item2_line,item3_line,item4_line,item5_line,item6_line
1c,10,100148,1,1,1,21,M,NA,variable,homogeneous,5,absent,1.0918071269989,1,horizontal,horizontal,1,0.929413814544678,red,1,NaN,721.200666434388,842.519411655264,NaN,NaN,721.200666434388,842.519411655264,1006.29933356561,749.885239334581,1006.29933356561,450.114760665419,721.200666434388,357.480588344736,545,600,0,0,4,0,0,0,0,NaN,horizontal,horizontal,vertical,horizontal,vertical,none
1c,10,100148,1,2,2,21,M,NA,variable,homogeneous,6,absent,1.42370510101318,1,vertical,vertical,1,0.705883011817932,red,3,NaN,938.882953928832,386.139005173917,NaN,NaN,915.767577433584,827.206663668034,1054.65053136242,613.345668841951,938.882953928832,386.139005173917,684.232422566416,372.793336331966,545.349468637584,586.654331158049,661.117046071168,813.860994826083,0,0,4,0,0,0,vertical,horizontal,vertical,horizontal,horizontal,vertical
1c,10,100148,1,3,3,21,M,NA,variable,homogeneous,5,present,1.57338905334473,1,vertical,vertical,1,1.04706160545349,red,3,5,853.017481158529,350.57236181288,610.498069503264,770.628304621509,903.717843984329,832.954091698863,1053.60308331891,573.345241866748,853.017481158529,350.57236181288,579.163522034968,472.5,610.498069503264,770.628304621509,0,0,0,0,4,0,0,NaN,horizontal,vertical,vertical,vertical,vertical,none
1c,10,100148,1,4,4,21,M,NA,variable,homogeneous,5,present,1.82954621315002,1,horizontal,horizontal,1,0.623529558181763,red,2,4,1051.12597701811,555.719714694933,570.807518193712,488.215357568785,919.715248510402,825.151636179026,1051.12597701811,555.719714694933,835.489140744817,347.4816424709,570.807518193712,488.215357568785,622.862115532956,783.431649086356,0,0,0,4,0,0,0,NaN,horizontal,horizontal,vertical,vertical,horizontal,none
1c,10,100148,1,5,5,21,M,NA,variable,homogeneous,4,absent,1.21571803092957,1,vertical,vertical,1,0.682353453636169,green,3,NaN,746.982518841471,350.57236181288,NaN,NaN,853.017481158529,849.42763818712,1049.42763818712,546.982518841471,746.982518841471,350.57236181288,550.57236181288,653.017481158529,0,0,0,0,0,0,4,0,NaN,NaN,vertical,vertical,vertical,vertical,none,none
1c,10,100148,1,6,6,21,M,NA,variable,homogeneous,5,absent,0.852386951446533,1,vertical,vertical,1,0.811766023635864,green,4,NaN,800,345,NaN,NaN,650.114760665419,806.299333565612,949.885239334581,806.299333565612,1042.51941165526,521.200666434388,800,345,557.480588344736,521.200666434388,0,0,0,0,0,4,0,NaN,horizontal,horizontal,horizontal,vertical,horizontal,none
1c,10,100148,1,7,7,21,M,NA,variable,homogeneous,4,absent,0.622422218322754,1,horizontal,horizontal,1,0.811766023635864,green,3,NaN,804.450363641507,345.03883773512,NaN,NaN,795.549636358493,854.96116226488,1054.96116226488,604.450363641507,804.450363641507,345.03883773512,545.03883773512,595.549636358493,0,0,0,0,0,0,4,0,NaN,NaN,vertical,vertical,horizontal,vertical,none,none
1c,10,100148,1,8,8,21,M,NA,variable,homogeneous,4,absent,1.52176690101624,1,horizontal,horizontal,1,0.752942128181457,red,2,NaN,1029.19248180629,488.215357568785,NaN,NaN,911.784642431215,829.192481806288,1029.19248180629,488.215357568785,688.215357568785,370.807518193712,570.807518193712,711.784642431215,0,0,0,0,0,4,0,0,NaN,NaN,horizontal,horizontal,horizontal,horizontal,none,none
1c,10,100148,1,9,9,21,M,NA,variable,homogeneous,5,present,0.662533044815063,1,horizontal,horizontal,1,0.705883011817932,red,2,3,1045.12173246427,529.712474266665,808.899371659138,345.155339110131,942.594190385041,811.404581001536,1045.12173246427,529.712474266665,808.899371659138,345.155339110131,560.378381699593,512.784863451954,643.006323791957,800.942742169714,0,0,0,4,0,0,0,NaN,horizontal,horizontal,vertical,horizontal,horizontal,none
1c,10,100148,1,10,10,21,M,NA,variable,homogeneous,3,absent,0.733258962631226,1,vertical,vertical,1,0.658823895454407,red,1,NaN,604.658667004661,763.910840470068,NaN,NaN,604.658667004661,763.910840470068,1039.62161830041,687.215136548046,755.719714694933,348.874022981887,0,0,0,0,0,0,4,0,0,NaN,NaN,NaN,vertical,horizontal,vertical,none,none,none
1c,10,100148,1,11,11,21,M,NA,variable,homogeneous,6,absent,0.769891977310181,1,horizontal,horizontal,1,0.894119477272034,green,3,NaN,1042.51941165526,521.200666434388,NaN,NaN,746.982518841471,849.42763818712,989.501930496736,770.628304621509,1042.51941165526,521.200666434388,853.017481158529,350.57236181288,610.498069503264,429.371695378491,557.480588344736,678.799333565612,0,0,4,0,0,0,vertical,horizontal,horizontal,horizontal,vertical,vertical
1c,10,100148,1,12,12,21,M,NA,variable,homogeneous,5,present,1.04978489875793,1,vertical,vertical,1,0.823530802726746,green,5,1,549.685068220846,648.656293821019,768.923317431687,853.099268668537,768.923317431687,853.099268668537,1031.10848569435,707.767656743878,973.909581815937,413.504806087112,676.373546837184,376.971974679454,549.685068220846,648.656293821019,0,0,0,0,0,0,4,NaN,vertical,vertical,vertical,vertical,vertical,none
1c,10,100148,1,13,13,21,M,NA,variable,homogeneous,4,absent,0.662077903747559,1,vertical,vertical,1,0.752942128181457,green,4,NaN,546.39691668109,626.654758133252,NaN,NaN,826.654758133252,853.60308331891,1053.60308331891,573.345241866748,773.345241866748,346.39691668109,546.39691668109,626.654758133252,0,0,0,0,0,0,0,4,NaN,NaN,horizontal,horizontal,horizontal,vertical,none,none
1c,10,100148,1,14,14,21,M,NA,variable,homogeneous,5,absent,1.27963805198669,1,vertical,vertical,1,0.800001244544983,green,3,NaN,857.362518857686,351.535633479765,NaN,NaN,899.636437764765,834.728737630372,1054.0296480134,577.775285599347,857.362518857686,351.535633479765,581.422338320961,468.665290897936,607.549057043193,767.295052392579,0,0,0,0,4,0,0,NaN,horizontal,vertical,vertical,horizontal,vertical,none
1c,10,100148,1,15,15,21,M,NA,variable,homogeneous,6,absent,0.593837022781372,1,horizontal,horizontal,1,0.835295581817627,green,4,NaN,839.890788585259,348.13947314824,NaN,NaN,760.109211414741,851.86052685176,998.172220171528,760.476699717708,1038.06300875679,508.616172865948,839.890788585259,348.13947314824,601.827779828472,439.523300282291,561.936991243214,691.383827134052,0,0,0,4,0,0,vertical,vertical,horizontal,horizontal,horizontal,vertical
1c,10,100148,1,16,16,21,M,NA,variable,homogeneous,4,absent,0.685616970062256,1,vertical,vertical,1,0.988237709999084,red,3,NaN,646.537169096228,396.34794493794,NaN,NaN,953.462830903772,803.65205506206,1003.65205506206,446.537169096228,646.537169096228,396.34794493794,596.34794493794,753.462830903772,0,0,0,0,0,0,4,0,NaN,NaN,horizontal,horizontal,vertical,vertical,none,none
1c,10,100148,1,17,17,21,M,NA,variable,homogeneous,3,absent,0.987849950790405,1,horizontal,horizontal,1,0.811766023635864,green,2,NaN,992.450942956807,432.704947607421,NaN,NaN,848.656293821019,850.314931779154,992.450942956807,432.704947607421,558.892763222174,516.980120613425,0,0,0,0,0,0,0,4,0,NaN,NaN,NaN,horizontal,horizontal,horizontal,none,none,none
1c,10,100148,1,18,18,21,M,NA,variable,homogeneous,4,present,0.718789100646973,1,vertical,vertical,1,0.741177349090576,green,2,3,1042.51941165526,678.799333565612,878.799333565612,357.480588344736,721.200666434388,842.519411655264,1042.51941165526,678.799333565612,878.799333565612,357.480588344736,557.480588344736,521.200666434388,0,0,0,0,0,4,0,0,NaN,NaN,horizontal,vertical,horizontal,vertical,none,none
1c,10,100148,1,19,19,21,M,NA,variable,homogeneous,6,absent,0.934855937957764,1,vertical,vertical,1,1.07059116363525,green,2,NaN,938.882953928832,813.860994826083,NaN,NaN,684.232422566416,827.206663668034,938.882953928832,813.860994826083,1054.65053136242,586.654331158049,915.767577433584,372.793336331966,661.117046071168,386.139005173917,545.349468637584,613.345668841951,0,4,0,0,0,0,vertical,vertical,horizontal,horizontal,vertical,horizontal
1c,10,100148,1,20,20,21,M,NA,variable,homogeneous,6,absent,0.762106895446777,1,vertical,vertical,1,0.623529558181763,green,4,NaN,804.450363641507,345.03883773512,NaN,NaN,795.549636358493,854.96116226488,1018.57766167904,731.334709102064,1023.02802532055,476.373546837184,804.450363641507,345.03883773512,581.422338320961,468.665290897936,576.971974679454,723.626453162816,0,0,0,4,0,0,horizontal,horizontal,vertical,vertical,vertical,horizontal
1c,10,100148,1,21,21,21,M,NA,variable,homogeneous,6,present,1.60673809051514,0,horizontal,vertical,1,0.847060360908508,red,2,4,1048.46436652023,657.362518857686,725.445215295702,356.142287229426,874.554784704298,843.857712770574,1048.46436652023,657.362518857686,973.909581815937,413.504806087112,725.445215295702,356.142287229426,551.535633479765,542.637481142314,626.090418184063,786.495193912888,0,4,0,0,0,0,vertical,horizontal,vertical,vertical,horizontal,horizontal
1c,10,100148,1,22,22,21,M,NA,variable,homogeneous,5,absent,NaN,0,horizontal,none,0,0.882354698181152,green,4,NaN,764.510859255183,347.4816424709,NaN,NaN,680.284751489598,825.151636179026,977.137884467044,783.431649086356,1029.19248180629,488.215357568785,764.510859255183,347.4816424709,548.874022981887,555.719714694933,0,0,0,0,0,4,0,NaN,vertical,vertical,vertical,horizontal,vertical,none
1c,10,100148,1,23,23,21,M,NA,variable,homogeneous,3,absent,0.725586175918579,1,vertical,vertical,1,1.04706160545349,red,2,NaN,874.554784704298,356.142287229426,NaN,NaN,973.909581815937,786.495193912888,874.554784704298,356.142287229426,551.535633479765,657.362518857686,0,0,0,0,0,0,0,4,0,NaN,NaN,NaN,horizontal,vertical,horizontal,none,none,none
1c,10,100148,1,24,24,21,M,NA,variable,homogeneous,5,present,1.26249384880066,1,horizontal,horizontal,1,0.717647790908813,green,2,5,1049.42763818712,546.982518841471,629.371695378491,789.501930496736,927.5,820.836477965032,1049.42763818712,546.982518841471,826.654758133252,346.39691668109,567.045908301137,496.282156015671,629.371695378491,789.501930496736,0,0,0,4,0,0,0,NaN,vertical,horizontal,vertical,vertical,horizontal,none
1c,10,100148,1,25,25,21,M,NA,variable,homogeneous,6,present,0.817309141159058,1,vertical,vertical,1,0.670588674545288,green,2,1,983.431649086356,777.137884467044,738.309916622085,847.425410200379,738.309916622085,847.425410200379,983.431649086356,777.137884467044,1045.12173246427,529.712474266665,861.690083377915,352.574589799621,616.568350913644,422.862115532956,554.878267535729,670.287525733335,0,4,0,0,0,0,horizontal,vertical,horizontal,vertical,horizontal,horizontal
1c,10,100148,1,26,26,21,M,NA,variable,homogeneous,3,absent,0.897908926010132,1,horizontal,horizontal,1,0.6,red,1,NaN,680.284751489598,825.151636179026,NaN,NaN,680.284751489598,825.151636179026,1054.84466088987,591.100628340862,664.870587620533,383.747735480111,0,0,0,0,0,0,4,0,0,NaN,NaN,NaN,horizontal,vertical,horizontal,none,none,none
1c,10,100148,1,27,27,21,M,NA,variable,homogeneous,4,present,1.44900703430176,1,horizontal,horizontal,1,0.647059116363525,red,2,3,1038.06300875679,508.616172865948,708.616172865948,361.936991243214,891.383827134052,838.063008756786,1038.06300875679,508.616172865948,708.616172865948,361.936991243214,561.936991243214,691.383827134052,0,0,0,0,0,4,0,0,NaN,NaN,horizontal,horizontal,vertical,horizontal,none,none
1c,10,100148,1,28,28,21,M,NA,variable,homogeneous,6,present,1.32105302810669,1,horizontal,horizontal,1,0.741177349090576,red,4,6,899.636437764765,365.271262369628,546.900731331463,631.076682568313,700.363562235235,834.728737630372,953.462830903772,803.65205506206,1053.09926866854,568.923317431687,899.636437764765,365.271262369628,646.537169096228,396.34794493794,546.900731331463,631.076682568313,0,0,0,4,0,0,horizontal,horizontal,vertical,horizontal,horizontal,horizontal
1c,10,100148,1,29,29,21,M,NA,variable,homogeneous,5,absent,NaN,0,vertical,none,0,0.623529558181763,red,3,NaN,977.137884467044,416.568350913644,NaN,NaN,764.510859255183,852.518357529101,1029.19248180629,711.784642431215,977.137884467044,416.568350913644,680.284751489598,374.848363820974,548.874022981887,644.280285305067,0,0,0,0,4,0,0,NaN,horizontal,horizontal,vertical,horizontal,vertical,none
1c,10,100148,1,30,30,21,M,NA,variable,homogeneous,5,absent,1.24239993095398,1,vertical,vertical,1,0.905884256362915,red,1,NaN,746.982518841471,849.42763818712,NaN,NaN,746.982518841471,849.42763818712,1020.83647796503,727.5,989.501930496736,429.371695378491,696.282156015671,367.045908301137,546.39691668109,626.654758133252,0,0,4,0,0,0,0,NaN,vertical,vertical,horizontal,vertical,horizontal,none
1c,10,100148,1,31,31,21,M,NA,variable,homogeneous,6,absent,0.793191194534302,1,horizontal,horizontal,1,0.682353453636169,red,4,NaN,907.767656743878,368.891514305654,NaN,NaN,692.232343256122,831.108485694346,946.261991269517,808.883771293693,1054.0296480134,577.775285599347,907.767656743878,368.891514305654,653.738008730483,391.116228706307,545.970351986605,622.224714400653,0,0,0,4,0,0,vertical,horizontal,horizontal,horizontal,horizontal,vertical
1c,10,100148,1,32,32,21,M,NA,variable,homogeneous,3,present,0.781926870346069,1,horizontal,horizontal,1,0.835295581817627,red,3,1,588.595418998464,457.40580961496,782.212099195248,854.378832816255,782.212099195248,854.378832816255,1029.19248180629,488.215357568785,588.595418998464,457.40580961496,0,0,0,0,0,0,0,0,4,NaN,NaN,NaN,horizontal,horizontal,horizontal,none,none,none
1c,10,100148,1,33,33,21,M,NA,variable,homogeneous,4,absent,0.725929975509644,1,horizontal,horizontal,1,0.611764779090881,green,1,NaN,903.717843984329,832.954091698863,NaN,NaN,903.717843984329,832.954091698863,1032.95409169886,496.282156015671,696.282156015671,367.045908301137,567.045908301137,703.717843984329,0,0,0,0,4,0,0,0,NaN,NaN,horizontal,vertical,vertical,vertical,none,none
1c,10,100148,1,34,34,21,M,NA,variable,homogeneous,4,absent,0.673204898834229,1,vertical,vertical,1,1.03529682636261,red,3,NaN,967.295052392579,407.549057043193,NaN,NaN,632.704947607421,792.450942956807,992.450942956807,767.295052392579,967.295052392579,407.549057043193,607.549057043193,432.704947607421,0,0,0,0,0,0,4,0,NaN,NaN,vertical,horizontal,vertical,horizontal,none,none
1c,10,100148,1,35,35,21,M,NA,variable,homogeneous,3,absent,0.656151056289673,1,horizontal,horizontal,1,1.07059116363525,green,2,NaN,1038.06300875679,508.616172865948,NaN,NaN,760.109211414741,851.86052685176,1038.06300875679,508.616172865948,601.827779828472,439.523300282291,0,0,0,0,0,0,0,4,0,NaN,NaN,NaN,horizontal,horizontal,vertical,none,none,none
1c,10,100148,1,36,36,21,M,NA,variable,homogeneous,6,present,1.03393197059631,1,vertical,vertical,1,0.811766023635864,red,5,2,646.537169096228,396.34794493794,953.462830903772,803.65205506206,700.363562235235,834.728737630372,953.462830903772,803.65205506206,1053.09926866854,568.923317431687,899.636437764765,365.271262369628,646.537169096228,396.34794493794,546.900731331463,631.076682568313,0,0,0,0,4,0,horizontal,horizontal,vertical,horizontal,vertical,horizontal
1c,10,100148,1,37,37,21,M,NA,variable,homogeneous,6,present,1.15253782272339,0,vertical,horizontal,1,0.882354698181152,green,1,6,835.489140744817,852.518357529101,599.057257830286,756.993676208043,835.489140744817,852.518357529101,1036.43188291453,695.524681321058,1000.94274216971,443.006323791957,764.510859255183,347.4816424709,563.568117085469,504.475318678942,599.057257830286,756.993676208043,4,0,0,0,0,0,vertical,vertical,horizontal,vertical,vertical,horizontal
1c,10,100148,1,38,38,21,M,NA,variable,homogeneous,5,present,1.18018794059753,1,vertical,vertical,1,0.823530802726746,red,3,4,1038.06300875679,508.616172865948,786.654331158049,345.349468637584,661.117046071168,813.860994826083,960.476699717708,798.172220171528,1038.06300875679,508.616172865948,786.654331158049,345.349468637584,553.688914296288,534.001143498857,0,0,0,0,4,0,0,NaN,vertical,horizontal,vertical,horizontal,horizontal,none
1c,10,100148,1,39,39,21,M,NA,variable,homogeneous,3,present,1.07825613021851,1,vertical,vertical,1,0.905884256362915,green,1,3,1016.25226451989,735.129412379467,574.848363820974,719.715248510402,1016.25226451989,735.129412379467,808.899371659138,345.155339110131,574.848363820974,719.715248510402,0,0,0,0,0,0,4,0,0,NaN,NaN,NaN,vertical,horizontal,vertical,none,none,none
1c,10,100148,1,40,40,21,M,NA,variable,homogeneous,5,absent,0.941184997558594,1,horizontal,horizontal,1,0.870589919090271,green,1,NaN,923.626453162816,823.028025320546,NaN,NaN,923.626453162816,823.028025320546,1050.31493177915,551.343706178981,831.076682568313,346.900731331463,568.891514305654,492.232343256122,626.090418184063,786.495193912888,0,0,4,0,0,0,0,NaN,horizontal,horizontal,horizontal,horizontal,horizontal,none
1c,10,100148,1,41,41,21,M,NA,variable,homogeneous,4,present,1.67624998092651,1,horizontal,horizontal,1,1.00000248908997,green,2,1,1016.25226451989,735.129412379467,664.870587620533,816.252264519889,664.870587620533,816.252264519889,1016.25226451989,735.129412379467,935.129412379467,383.747735480111,583.747735480111,464.870587620533,0,0,0,0,0,4,0,0,NaN,NaN,vertical,horizontal,vertical,vertical,none,none
1c,10,100148,1,42,42,21,M,NA,variable,homogeneous,4,present,1.154296875,0,vertical,horizontal,1,0.800001244544983,red,1,3,653.738008730483,808.883771293693,946.261991269517,391.116228706307,653.738008730483,808.883771293693,1008.88377129369,746.261991269517,946.261991269517,391.116228706307,591.116228706307,453.738008730483,0,0,0,0,4,0,0,0,NaN,NaN,vertical,vertical,horizontal,vertical,none,none
1c,10,100148,1,43,43,21,M,NA,variable,homogeneous,6,present,1.45849418640137,1,horizontal,horizontal,1,0.85882513999939,green,2,1,1013.86099482608,738.882953928832,786.654331158049,854.650531362416,786.654331158049,854.650531362416,1013.86099482608,738.882953928832,1027.20666366803,484.232422566416,813.345668841951,345.349468637584,586.139005173917,461.117046071168,572.793336331966,715.767577433584,0,4,0,0,0,0,vertical,horizontal,horizontal,vertical,horizontal,vertical
1c,10,100148,1,44,44,21,M,NA,variable,homogeneous,3,present,1.46926307678223,1,horizontal,horizontal,1,0.670588674545288,green,1,3,1008.88377129369,746.261991269517,568.891514305654,707.767656743878,1008.88377129369,746.261991269517,822.224714400653,345.970351986605,568.891514305654,707.767656743878,0,0,0,0,0,0,4,0,0,NaN,NaN,NaN,horizontal,vertical,horizontal,none,none,none
1c,10,100148,1,45,45,21,M,NA,variable,homogeneous,6,present,0.964822053909302,1,horizontal,horizontal,1,0.694118232727051,green,5,6,646.537169096228,396.34794493794,546.900731331463,631.076682568313,700.363562235235,834.728737630372,953.462830903772,803.65205506206,1053.09926866854,568.923317431687,899.636437764765,365.271262369628,646.537169096228,396.34794493794,546.900731331463,631.076682568313,0,0,0,0,4,0,vertical,vertical,vertical,vertical,horizontal,vertical
1c,10,100148,1,46,46,21,M,NA,variable,homogeneous,6,absent,1.54862499237061,1,vertical,vertical,1,0.800001244544983,red,1,NaN,777.775285599347,854.029648013395,NaN,NaN,777.775285599347,854.029648013395,1008.88377129369,746.261991269517,1031.10848569435,492.232343256122,822.224714400653,345.970351986605,591.116228706307,453.738008730483,568.891514305654,707.767656743878,4,0,0,0,0,0,vertical,horizontal,vertical,horizontal,horizontal,vertical
1c,10,100148,1,47,47,21,M,NA,variable,homogeneous,4,present,1.16613006591797,1,vertical,vertical,1,0.917649035453796,red,2,1,1013.86099482608,738.882953928832,661.117046071168,813.860994826083,661.117046071168,813.860994826083,1013.86099482608,738.882953928832,938.882953928832,386.139005173917,586.139005173917,461.117046071168,0,0,0,0,0,4,0,0,NaN,NaN,vertical,vertical,horizontal,horizontal,none,none
1c,10,100148,1,48,48,21,M,NA,variable,homogeneous,3,absent,0.581487894058228,1,vertical,vertical,1,1.00000248908997,green,1,NaN,923.626453162816,823.028025320546,NaN,NaN,923.626453162816,823.028025320546,931.334709102064,381.422338320961,545.03883773512,595.549636358493,0,0,0,0,0,0,4,0,0,NaN,NaN,NaN,vertical,vertical,vertical,none,none,none
1c,10,100148,1,49,49,21,M,NA,variable,homogeneous,3,absent,0.764211893081665,1,horizontal,horizontal,1,0.941178593635559,red,3,NaN,716.980120613425,358.892763222174,NaN,NaN,632.704947607421,792.450942956807,1050.31493177915,648.656293821019,716.980120613425,358.892763222174,0,0,0,0,0,0,0,0,4,NaN,NaN,NaN,vertical,vertical,horizontal,none,none,none
1c,10,100148,1,50,50,21,M,NA,variable,homogeneous,4,present,0.665364027023315,1,horizontal,horizontal,1,1.08235594272614,green,2,4,980.31222920257,780.31222920257,619.68777079743,419.68777079743,619.68777079743,780.31222920257,980.31222920257,780.31222920257,980.31222920257,419.68777079743,619.68777079743,419.68777079743,0,0,0,0,0,4,0,0,NaN,NaN,vertical,horizontal,horizontal,vertical,none,none
1c,10,100148,1,51,51,21,M,NA,variable,homogeneous,3,present,0.706331014633179,1,horizontal,horizontal,1,0.976472930908203,green,1,2,782.212099195248,854.378832816255,1029.19248180629,488.215357568785,782.212099195248,854.378832816255,1029.19248180629,488.215357568785,588.595418998464,457.40580961496,0,0,0,0,0,0,4,0,0,NaN,NaN,NaN,horizontal,horizontal,horizontal,none,none,none
1c,10,100148,1,52,52,21,M,NA,variable,homogeneous,6,present,0.959944009780884,1,vertical,vertical,1,0.764706907272339,red,3,4,953.462830903772,396.34794493794,700.363562235235,365.271262369628,899.636437764765,834.728737630372,1053.09926866854,631.076682568313,953.462830903772,396.34794493794,700.363562235235,365.271262369628,546.900731331463,568.923317431687,646.537169096228,803.65205506206,0,0,4,0,0,0,horizontal,vertical,vertical,horizontal,vertical,horizontal
1c,10,100148,1,53,53,21,M,NA,variable,homogeneous,4,present,1.01755785942078,1,horizontal,horizontal,1,0.929413814544678,red,4,1,616.568350913644,422.862115532956,622.862115532956,783.431649086356,622.862115532956,783.431649086356,983.431649086356,777.137884467044,977.137884467044,416.568350913644,616.568350913644,422.862115532956,0,0,0,0,0,0,0,4,NaN,NaN,horizontal,vertical,vertical,horizontal,none,none
1c,10,100148,1,54,54,21,M,NA,variable,homogeneous,5,present,0.90727686882019,1,vertical,vertical,1,0.847060360908508,green,5,2,646.537169096228,803.65205506206,1043.85771277057,525.445215295702,946.261991269517,808.883771293693,1043.85771277057,525.445215295702,804.450363641507,345.03883773512,558.892763222174,516.980120613425,646.537169096228,803.65205506206,0,0,0,0,0,0,4,NaN,vertical,vertical,horizontal,horizontal,vertical,none
1c,10,100148,1,55,55,21,M,NA,variable,homogeneous,3,present,0.715104818344116,1,vertical,vertical,1,1.08235594272614,green,2,1,935.129412379467,383.747735480111,919.715248510402,825.151636179026,919.715248510402,825.151636179026,935.129412379467,383.747735480111,545.155339110131,591.100628340862,0,0,0,0,0,0,0,4,0,NaN,NaN,NaN,vertical,vertical,vertical,none,none,none
1c,10,100148,1,56,56,21,M,NA,variable,homogeneous,4,present,1.28471899032593,1,vertical,vertical,1,0.95294337272644,green,4,1,545.621167183745,617.787900804752,817.787900804752,854.378832816255,817.787900804752,854.378832816255,1054.37883281626,582.212099195248,782.212099195248,345.621167183745,545.621167183745,617.787900804752,0,0,0,0,0,0,0,4,NaN,NaN,vertical,horizontal,horizontal,vertical,none,none
1c,10,100148,1,57,57,21,M,NA,variable,homogeneous,4,absent,1.07366180419922,1,horizontal,horizontal,1,0.741177349090576,red,4,NaN,574.848363820974,719.715248510402,NaN,NaN,919.715248510402,825.151636179026,1025.15163617903,480.284751489598,680.284751489598,374.848363820974,574.848363820974,719.715248510402,0,0,0,0,0,0,0,4,NaN,NaN,vertical,horizontal,vertical,horizontal,none,none
1c,10,100148,1,58,58,21,M,NA,variable,homogeneous,3,absent,0.847996950149536,1,vertical,vertical,1,1.04706160545349,green,2,NaN,1051.12597701811,555.719714694933,NaN,NaN,712.784863451954,839.621618300407,1051.12597701811,555.719714694933,636.089159529932,404.658667004661,0,0,0,0,0,0,0,4,0,NaN,NaN,NaN,vertical,vertical,horizontal,none,none,none
1c,10,100148,1,59,59,21,M,NA,variable,homogeneous,6,absent,0.92977499961853,1,horizontal,horizontal,1,1.03529682636261,red,1,NaN,911.784642431215,829.192481806288,NaN,NaN,911.784642431215,829.192481806288,1054.37883281626,617.787900804752,942.594190385041,388.595418998464,688.215357568785,370.807518193712,545.621167183745,582.212099195248,657.405809614959,811.404581001536,4,0,0,0,0,0,horizontal,horizontal,horizontal,vertical,horizontal,horizontal
1c,10,100148,1,60,60,21,M,NA,variable,homogeneous,5,absent,0.84630012512207,1,horizontal,horizontal,1,1.07059116363525,red,1,NaN,878.799333565612,842.519411655264,NaN,NaN,878.799333565612,842.519411655264,1055,600,878.799333565612,357.480588344736,593.700666434388,450.114760665419,593.700666434388,749.885239334581,0,0,4,0,0,0,0,NaN,horizontal,horizontal,vertical,horizontal,horizontal,none
1c,10,100148,1,61,61,21,M,NA,variable,homogeneous,3,present,1.07381296157837,1,vertical,vertical,1,0.905884256362915,red,2,3,1051.12597701811,644.280285305067,712.784863451954,360.378381699593,636.089159529932,795.341332995339,1051.12597701811,644.280285305067,712.784863451954,360.378381699593,0,0,0,0,0,0,0,4,0,NaN,NaN,NaN,horizontal,vertical,vertical,none,none,none
1c,10,100148,1,62,62,21,M,NA,variable,homogeneous,3,present,0.603515148162842,1,horizontal,horizontal,1,1.01176726818085,red,1,2,672.5,820.836477965032,1055,600,672.5,820.836477965032,1055,600,672.5,379.163522034968,0,0,0,0,0,0,4,0,0,NaN,NaN,NaN,horizontal,horizontal,vertical,none,none,none
1c,10,100148,1,63,63,21,M,NA,variable,homogeneous,3,present,0.669393062591553,1,vertical,vertical,1,1.08235594272614,red,3,1,563.568117085469,695.524681321058,1000.94274216971,756.993676208043,1000.94274216971,756.993676208043,835.489140744817,347.4816424709,563.568117085469,695.524681321058,0,0,0,0,0,0,0,0,4,NaN,NaN,NaN,horizontal,horizontal,vertical,none,none,none
1c,10,100148,1,64,64,21,M,NA,variable,homogeneous,5,present,1.22640800476074,1,horizontal,horizontal,1,0.976472930908203,green,1,5,915.767577433584,827.206663668034,619.68777079743,780.31222920257,915.767577433584,827.206663668034,1051.86052685176,560.109211414741,839.890788585259,348.13947314824,572.793336331966,484.232422566416,619.68777079743,780.31222920257,0,0,4,0,0,0,0,NaN,horizontal,horizontal,vertical,vertical,horizontal,none
1c,10,100148,2,1,65,21,M,NA,variable,homogeneous,6,absent,0.821426868438721,1,horizontal,horizontal,1,0.988237709999084,red,2,NaN,938.882953928832,813.860994826083,NaN,NaN,684.232422566416,827.206663668034,938.882953928832,813.860994826083,1054.65053136242,586.654331158049,915.767577433584,372.793336331966,661.117046071168,386.139005173917,545.349468637584,613.345668841951,0,4,0,0,0,0,horizontal,horizontal,horizontal,horizontal,horizontal,horizontal
1c,10,100148,2,2,66,21,M,NA,variable,homogeneous,4,present,0.583745956420898,1,vertical,vertical,1,0.894119477272034,red,2,1,1042.51941165526,678.799333565612,721.200666434388,842.519411655264,721.200666434388,842.519411655264,1042.51941165526,678.799333565612,878.799333565612,357.480588344736,557.480588344736,521.200666434388,0,0,0,0,0,4,0,0,NaN,NaN,vertical,vertical,horizontal,vertical,none,none
1c,10,100148,2,3,67,21,M,NA,variable,homogeneous,4,present,0.615149021148682,1,vertical,vertical,1,0.788236465454102,green,2,3,1029.19248180629,711.784642431215,911.784642431215,370.807518193712,688.215357568785,829.192481806288,1029.19248180629,711.784642431215,911.784642431215,370.807518193712,570.807518193712,488.215357568785,0,0,0,0,0,4,0,0,NaN,NaN,vertical,vertical,horizontal,vertical,none,none
1c,10,100148,2,4,68,21,M,NA,variable,homogeneous,3,absent,0.649917125701904,1,vertical,vertical,1,0.717647790908813,green,2,NaN,844.280285305067,348.874022981887,NaN,NaN,995.341332995339,763.910840470068,844.280285305067,348.874022981887,560.378381699593,687.215136548046,0,0,0,0,0,0,0,4,0,NaN,NaN,NaN,vertical,vertical,vertical,none,none,none
1c,10,100148,2,5,69,21,M,NA,variable,homogeneous,4,present,1.18105792999268,1,vertical,vertical,1,1.08235594272614,green,4,3,549.685068220846,551.343706178981,848.656293821019,349.685068220846,751.343706178981,850.314931779154,1050.31493177915,648.656293821019,848.656293821019,349.685068220846,549.685068220846,551.343706178981,0,0,0,0,0,0,0,4,NaN,NaN,horizontal,horizontal,vertical,vertical,none,none
1c,10,100148,2,6,70,21,M,NA,variable,homogeneous,6,present,0.638556957244873,1,horizontal,horizontal,1,0.705883011817932,green,1,2,870.287525733335,845.121732464271,1047.42541020038,661.690083377915,870.287525733335,845.121732464271,1047.42541020038,661.690083377915,977.137884467044,416.568350913644,729.712474266665,354.878267535729,552.574589799621,538.309916622085,622.862115532956,783.431649086356,4,0,0,0,0,0,horizontal,horizontal,horizontal,horizontal,horizontal,vertical
1c,10,100148,2,7,71,21,M,NA,variable,homogeneous,6,absent,0.925258159637451,1,horizontal,horizontal,1,0.882354698181152,green,2,NaN,1049.42763818712,653.017481158529,NaN,NaN,878.799333565612,842.519411655264,1049.42763818712,653.017481158529,970.628304621509,410.498069503264,721.200666434388,357.480588344736,550.57236181288,546.982518841471,629.371695378491,789.501930496736,0,4,0,0,0,0,vertical,horizontal,vertical,vertical,horizontal,horizontal
1c,10,100148,2,8,72,21,M,NA,variable,homogeneous,6,absent,0.689274072647095,1,vertical,vertical,1,1.05882638454437,green,1,NaN,716.980120613425,841.107236777826,NaN,NaN,716.980120613425,841.107236777826,967.295052392579,792.450942956807,1050.31493177915,551.343706178981,883.019879386575,358.892763222174,632.704947607421,407.549057043193,549.685068220846,648.656293821019,4,0,0,0,0,0,vertical,horizontal,vertical,vertical,vertical,vertical
1c,10,100148,2,9,73,21,M,NA,variable,homogeneous,3,present,0.922222852706909,1,vertical,vertical,1,0.752942128181457,green,1,3,777.775285599347,854.029648013395,591.116228706307,453.738008730483,777.775285599347,854.029648013395,1031.10848569435,492.232343256122,591.116228706307,453.738008730483,0,0,0,0,0,0,4,0,0,NaN,NaN,NaN,vertical,vertical,horizontal,none,none,none
1c,10,100148,2,10,74,21,M,NA,variable,homogeneous,6,present,1.06585001945496,1,vertical,vertical,1,0.847060360908508,red,5,4,563.568117085469,504.475318678942,764.510859255183,347.4816424709,835.489140744817,852.518357529101,1036.43188291453,695.524681321058,1000.94274216971,443.006323791957,764.510859255183,347.4816424709,563.568117085469,504.475318678942,599.057257830286,756.993676208043,0,0,0,0,4,0,horizontal,horizontal,horizontal,vertical,vertical,horizontal
1c,10,100148,2,11,75,21,M,NA,variable,homogeneous,3,present,0.675647974014282,1,horizontal,horizontal,1,0.823530802726746,green,1,3,712.784863451954,839.621618300407,636.089159529932,404.658667004661,712.784863451954,839.621618300407,1051.12597701811,555.719714694933,636.089159529932,404.658667004661,0,0,0,0,0,0,4,0,0,NaN,NaN,NaN,horizontal,horizontal,horizontal,none,none,none
1c,10,100148,2,12,76,21,M,NA,variable,homogeneous,3,absent,0.590650081634521,1,vertical,vertical,1,0.85882513999939,green,1,NaN,977.137884467044,783.431649086356,NaN,NaN,977.137884467044,783.431649086356,870.287525733335,354.878267535729,552.574589799621,661.690083377915,0,0,0,0,0,0,4,0,0,NaN,NaN,NaN,vertical,horizontal,horizontal,none,none,none
1c,10,100148,2,13,77,21,M,NA,variable,homogeneous,6,present,0.557816982269287,1,horizontal,horizontal,1,0.752942128181457,red,6,4,632.704947607421,792.450942956807,716.980120613425,358.892763222174,883.019879386575,841.107236777826,1050.31493177915,648.656293821019,967.295052392579,407.549057043193,716.980120613425,358.892763222174,549.685068220846,551.343706178981,632.704947607421,792.450942956807,0,0,0,0,0,4,vertical,horizontal,vertical,vertical,horizontal,horizontal
1c,10,100148,2,14,78,21,M,NA,variable,homogeneous,6,absent,1.01949620246887,0,horizontal,vertical,1,0.917649035453796,red,2,NaN,1043.85771277057,674.554784704298,NaN,NaN,857.362518857686,848.464366520235,1043.85771277057,674.554784704298,986.495193912888,426.090418184063,742.637481142314,351.535633479765,556.142287229426,525.445215295702,613.504806087112,773.909581815937,0,4,0,0,0,0,vertical,horizontal,vertical,horizontal,horizontal,vertical
1c,10,100148,2,15,79,21,M,NA,variable,homogeneous,3,present,0.93093204498291,1,vertical,vertical,1,0.752942128181457,red,2,1,822.224714400653,345.970351986605,1008.88377129369,746.261991269517,1008.88377129369,746.261991269517,822.224714400653,345.970351986605,568.891514305654,707.767656743878,0,0,0,0,0,0,0,4,0,NaN,NaN,NaN,vertical,vertical,horizontal,none,none,none
1c,10,100148,2,16,80,21,M,NA,variable,homogeneous,5,present,1.0565037727356,1,horizontal,horizontal,1,0.741177349090576,green,1,5,878.799333565612,842.519411655264,593.700666434388,749.885239334581,878.799333565612,842.519411655264,1055,600,878.799333565612,357.480588344736,593.700666434388,450.114760665419,593.700666434388,749.885239334581,0,0,4,0,0,0,0,NaN,horizontal,horizontal,horizontal,vertical,horizontal,none
1c,10,100148,2,17,81,21,M,NA,variable,homogeneous,5,absent,1.6111888885498,1,vertical,vertical,1,0.882354698181152,red,3,NaN,977.137884467044,416.568350913644,NaN,NaN,764.510859255183,852.518357529101,1029.19248180629,711.784642431215,977.137884467044,416.568350913644,680.284751489598,374.848363820974,548.874022981887,644.280285305067,0,0,0,0,4,0,0,NaN,vertical,horizontal,vertical,vertical,horizontal,none
1c,10,100148,2,18,82,21,M,NA,variable,homogeneous,3,absent,0.789050102233887,1,horizontal,horizontal,1,0.870589919090271,green,2,NaN,967.295052392579,407.549057043193,NaN,NaN,883.019879386575,841.107236777826,967.295052392579,407.549057043193,549.685068220846,551.343706178981,0,0,0,0,0,0,0,4,0,NaN,NaN,NaN,horizontal,horizontal,vertical,none,none,none
1c,10,100148,2,19,83,21,M,NA,variable,homogeneous,5,absent,1.12484288215637,1,vertical,vertical,1,0.77647168636322,green,2,NaN,1045.12173246427,529.712474266665,NaN,NaN,942.594190385041,811.404581001536,1045.12173246427,529.712474266665,808.899371659138,345.155339110131,560.378381699593,512.784863451954,643.006323791957,800.942742169714,0,0,0,4,0,0,0,NaN,vertical,vertical,vertical,horizontal,horizontal,none
1c,10,100148,2,20,84,21,M,NA,variable,homogeneous,5,absent,0.61466908454895,1,horizontal,horizontal,1,0.741177349090576,red,3,NaN,923.626453162816,376.971974679454,NaN,NaN,831.076682568313,853.099268668537,1050.31493177915,648.656293821019,923.626453162816,376.971974679454,626.090418184063,413.504806087112,568.891514305654,707.767656743878,0,0,0,0,4,0,0,NaN,horizontal,vertical,horizontal,vertical,vertical,none
1c,10,100148,2,21,85,21,M,NA,variable,homogeneous,4,absent,0.715522050857544,1,horizontal,horizontal,1,0.635294337272644,green,1,NaN,923.626453162816,823.028025320546,NaN,NaN,923.626453162816,823.028025320546,1023.02802532055,476.373546837184,676.373546837184,376.971974679454,576.971974679454,723.626453162816,0,0,0,0,4,0,0,0,NaN,NaN,horizontal,vertical,horizontal,vertical,none,none
1c,10,100148,2,22,86,21,M,NA,variable,homogeneous,5,absent,0.768097877502441,1,horizontal,horizontal,1,0.917649035453796,red,4,NaN,639.523300282292,401.827779828472,NaN,NaN,813.345668841951,854.650531362416,1046.31108570371,665.998856501143,938.882953928832,386.139005173917,639.523300282292,401.827779828472,561.936991243214,691.383827134052,0,0,0,0,0,4,0,NaN,horizontal,horizontal,vertical,horizontal,horizontal,none
1c,10,100148,2,23,87,21,M,NA,variable,homogeneous,3,absent,0.590902090072632,1,vertical,vertical,1,0.95294337272644,red,3,NaN,742.637481142314,351.535633479765,NaN,NaN,613.504806087112,773.909581815937,1043.85771277057,674.554784704298,742.637481142314,351.535633479765,0,0,0,0,0,0,0,0,4,NaN,NaN,NaN,vertical,horizontal,vertical,none,none,none
1c,10,100148,2,24,88,21,M,NA,variable,homogeneous,3,present,0.890574932098389,1,vertical,vertical,1,0.788236465454102,red,3,2,570.807518193712,488.215357568785,1011.40458100154,457.40580961496,817.787900804752,854.378832816255,1011.40458100154,457.40580961496,570.807518193712,488.215357568785,0,0,0,0,0,0,0,0,4,NaN,NaN,NaN,vertical,horizontal,vertical,none,none,none
1c,10,100148,2,25,89,21,M,NA,variable,homogeneous,4,absent,1.05780601501465,1,horizontal,horizontal,1,0.658823895454407,green,2,NaN,1053.60308331891,573.345241866748,NaN,NaN,826.654758133252,853.60308331891,1053.60308331891,573.345241866748,773.345241866748,346.39691668109,546.39691668109,626.654758133252,0,0,0,0,0,4,0,0,NaN,NaN,vertical,horizontal,horizontal,horizontal,none,none
1c,10,100148,2,26,90,21,M,NA,variable,homogeneous,4,present,1.60840106010437,1,vertical,vertical,1,1.05882638454437,red,2,4,1047.42541020038,661.690083377915,552.574589799621,538.309916622085,738.309916622085,847.425410200379,1047.42541020038,661.690083377915,861.690083377915,352.574589799621,552.574589799621,538.309916622085,0,0,0,0,0,4,0,0,NaN,NaN,vertical,vertical,horizontal,horizontal,none,none
1c,10,100148,2,27,91,21,M,NA,variable,homogeneous,6,present,1.10771679878235,1,vertical,vertical,1,0.752942128181457,green,3,5,983.431649086356,422.862115532956,554.878267535729,529.712474266665,861.690083377915,847.425410200379,1045.12173246427,670.287525733335,983.431649086356,422.862115532956,738.309916622085,352.574589799621,554.878267535729,529.712474266665,616.568350913644,777.137884467044,0,0,4,0,0,0,vertical,vertical,vertical,vertical,vertical,vertical
1c,10,100148,2,28,92,21,M,NA,variable,homogeneous,6,absent,0.729841947555542,1,vertical,vertical,1,0.988237709999084,green,2,NaN,995.341332995339,763.910840470068,NaN,NaN,755.719714694933,851.125977018113,995.341332995339,763.910840470068,1039.62161830041,512.784863451954,844.280285305067,348.874022981887,604.658667004661,436.089159529932,560.378381699593,687.215136548046,0,4,0,0,0,0,vertical,vertical,vertical,vertical,vertical,vertical
1c,10,100148,2,29,93,21,M,NA,variable,homogeneous,3,absent,0.608682870864868,1,horizontal,horizontal,1,1.01176726818085,red,2,NaN,853.017481158529,350.57236181288,NaN,NaN,989.501930496736,770.628304621509,853.017481158529,350.57236181288,557.480588344736,678.799333565612,0,0,0,0,0,0,0,4,0,NaN,NaN,NaN,horizontal,horizontal,horizontal,none,none,none
1c,10,100148,2,30,94,21,M,NA,variable,homogeneous,3,absent,0.612489938735962,1,horizontal,horizontal,1,0.976472930908203,red,3,NaN,668.665290897936,381.422338320961,NaN,NaN,676.373546837184,823.028025320546,1054.96116226488,595.549636358493,668.665290897936,381.422338320961,0,0,0,0,0,0,0,0,4,NaN,NaN,NaN,vertical,horizontal,horizontal,none,none,none
1c,10,100148,2,31,95,21,M,NA,variable,homogeneous,5,absent,0.581275939941406,1,vertical,vertical,1,1.00000248908997,green,2,NaN,992.450942956807,767.295052392579,NaN,NaN,700.363562235235,834.728737630372,992.450942956807,767.295052392579,1018.57766167904,468.665290897936,742.637481142314,351.535633479765,545.970351986605,577.775285599347,0,0,0,4,0,0,0,NaN,horizontal,vertical,horizontal,horizontal,horizontal,none
1c,10,100148,2,32,96,21,M,NA,variable,homogeneous,6,present,1.02650690078735,1,horizontal,horizontal,1,0.670588674545288,green,1,6,853.017481158529,849.42763818712,610.498069503264,770.628304621509,853.017481158529,849.42763818712,1042.51941165526,678.799333565612,989.501930496736,429.371695378491,746.982518841471,350.57236181288,557.480588344736,521.200666434388,610.498069503264,770.628304621509,4,0,0,0,0,0,horizontal,horizontal,vertical,vertical,horizontal,horizontal
1c,10,100148,2,33,97,21,M,NA,variable,homogeneous,4,absent,0.888349771499634,1,vertical,vertical,1,0.847060360908508,green,4,NaN,593.700666434388,749.885239334581,NaN,NaN,949.885239334581,806.299333565612,1006.29933356561,450.114760665419,650.114760665419,393.700666434388,593.700666434388,749.885239334581,0,0,0,0,0,0,0,4,NaN,NaN,vertical,vertical,vertical,vertical,none,none
1c,10,100148,2,34,98,21,M,NA,variable,homogeneous,3,present,1.29755997657776,1,horizontal,horizontal,1,0.77647168636322,red,3,1,546.900731331463,568.923317431687,899.636437764765,834.728737630372,899.636437764765,834.728737630372,953.462830903772,396.34794493794,546.900731331463,568.923317431687,0,0,0,0,0,0,0,0,4,NaN,NaN,NaN,horizontal,horizontal,horizontal,none,none,none
1c,10,100148,2,35,99,21,M,NA,variable,homogeneous,5,present,0.741037130355835,1,horizontal,horizontal,1,0.658823895454407,red,4,3,700.363562235235,365.271262369628,992.450942956807,432.704947607421,742.637481142314,848.464366520235,1018.57766167904,731.334709102064,992.450942956807,432.704947607421,700.363562235235,365.271262369628,545.970351986605,622.224714400653,0,0,0,0,0,4,0,NaN,vertical,vertical,horizontal,horizontal,vertical,none
1c,10,100148,2,36,100,21,M,NA,variable,homogeneous,4,absent,0.769277095794678,1,horizontal,horizontal,1,0.85882513999939,red,1,NaN,973.909581815937,786.495193912888,NaN,NaN,973.909581815937,786.495193912888,986.495193912888,426.090418184063,626.090418184063,413.504806087112,613.504806087112,773.909581815937,0,0,0,0,4,0,0,0,NaN,NaN,horizontal,horizontal,horizontal,horizontal,none,none
1c,10,100148,2,37,101,21,M,NA,variable,homogeneous,3,present,1.08141493797302,1,vertical,vertical,1,0.823530802726746,green,2,3,804.450363641507,345.03883773512,576.971974679454,723.626453162816,1018.57766167904,731.334709102064,804.450363641507,345.03883773512,576.971974679454,723.626453162816,0,0,0,0,0,0,0,4,0,NaN,NaN,NaN,vertical,vertical,horizontal,none,none,none
1c,10,100148,2,38,102,21,M,NA,variable,homogeneous,6,absent,0.859634876251221,1,horizontal,horizontal,1,0.623529558181763,green,4,NaN,684.232422566416,372.793336331966,NaN,NaN,915.767577433584,827.206663668034,1054.65053136242,613.345668841951,938.882953928832,386.139005173917,684.232422566416,372.793336331966,545.349468637584,586.654331158049,661.117046071168,813.860994826083,0,0,0,4,0,0,vertical,horizontal,vertical,horizontal,horizontal,vertical
1c,10,100148,2,39,103,21,M,NA,variable,homogeneous,5,present,1.07438182830811,1,vertical,vertical,1,1.08235594272614,red,4,2,692.232343256122,368.891514305654,1023.02802532055,723.626453162816,751.343706178981,850.314931779154,1023.02802532055,723.626453162816,986.495193912888,426.090418184063,692.232343256122,368.891514305654,546.900731331463,631.076682568313,0,0,0,0,0,4,0,NaN,horizontal,vertical,vertical,vertical,horizontal,none
1c,10,100148,2,40,104,21,M,NA,variable,homogeneous,3,absent,1.3368091583252,1,vertical,vertical,1,1.02353204727173,red,1,NaN,773.345241866748,853.60308331891,NaN,NaN,773.345241866748,853.60308331891,1032.95409169886,496.282156015671,593.700666434388,450.114760665419,0,0,0,0,0,0,4,0,0,NaN,NaN,NaN,vertical,vertical,horizontal,none,none,none
1c,10,100148,2,41,105,21,M,NA,variable,homogeneous,5,present,0.6337571144104,1,horizontal,horizontal,1,0.882354698181152,green,4,2,650.114760665419,393.700666434388,1042.51941165526,678.799333565612,800,855,1042.51941165526,678.799333565612,949.885239334581,393.700666434388,650.114760665419,393.700666434388,557.480588344736,678.799333565612,0,0,0,0,0,4,0,NaN,horizontal,horizontal,vertical,horizontal,horizontal,none
1c,10,100148,2,42,106,21,M,NA,variable,homogeneous,4,present,0.675464868545532,1,horizontal,horizontal,1,0.85882513999939,red,4,2,613.504806087112,773.909581815937,986.495193912888,426.090418184063,973.909581815937,786.495193912888,986.495193912888,426.090418184063,626.090418184063,413.504806087112,613.504806087112,773.909581815937,0,0,0,0,0,0,0,4,NaN,NaN,horizontal,vertical,vertical,horizontal,none,none
1c,10,100148,2,43,107,21,M,NA,variable,homogeneous,6,present,1.13010907173157,1,vertical,vertical,1,1.04706160545349,red,2,1,1046.31108570371,665.998856501143,865.998856501143,846.311085703712,865.998856501143,846.311085703712,1046.31108570371,665.998856501143,980.31222920257,419.68777079743,734.001143498857,353.688914296288,553.688914296288,534.001143498857,619.68777079743,780.31222920257,0,4,0,0,0,0,vertical,vertical,horizontal,horizontal,vertical,vertical
1c,10,100148,2,44,108,21,M,NA,variable,homogeneous,6,present,1.81361317634583,1,horizontal,horizontal,1,1.04706160545349,red,5,3,572.793336331966,484.232422566416,1013.86099482608,461.117046071168,813.345668841951,854.650531362416,1027.20666366803,715.767577433584,1013.86099482608,461.117046071168,786.654331158049,345.349468637584,572.793336331966,484.232422566416,586.139005173917,738.882953928832,0,0,0,0,4,0,horizontal,horizontal,vertical,vertical,horizontal,vertical
1c,10,100148,2,45,109,21,M,NA,variable,homogeneous,4,present,0.951157093048096,1,horizontal,horizontal,1,0.847060360908508,green,4,3,565.271262369628,500.363562235235,899.636437764765,365.271262369628,700.363562235235,834.728737630372,1034.72873763037,699.636437764765,899.636437764765,365.271262369628,565.271262369628,500.363562235235,0,0,0,0,0,0,0,4,NaN,NaN,vertical,horizontal,vertical,horizontal,none,none
1c,10,100148,2,46,110,21,M,NA,variable,homogeneous,3,present,0.552981853485107,1,horizontal,horizontal,1,0.941178593635559,green,1,3,610.498069503264,770.628304621509,746.982518841471,350.57236181288,610.498069503264,770.628304621509,1042.51941165526,678.799333565612,746.982518841471,350.57236181288,0,0,0,0,0,0,4,0,0,NaN,NaN,NaN,horizontal,horizontal,horizontal,none,none,none
1c,10,100148,2,47,111,21,M,NA,variable,homogeneous,4,absent,0.557787179946899,1,horizontal,horizontal,1,1.07059116363525,red,4,NaN,619.68777079743,419.68777079743,NaN,NaN,619.68777079743,780.31222920257,980.31222920257,780.31222920257,980.31222920257,419.68777079743,619.68777079743,419.68777079743,0,0,0,0,0,0,0,4,NaN,NaN,vertical,vertical,horizontal,horizontal,none,none
1c,10,100148,2,48,112,21,M,NA,variable,homogeneous,4,absent,0.673101186752319,1,vertical,vertical,1,0.800001244544983,red,2,NaN,1029.19248180629,488.215357568785,NaN,NaN,911.784642431215,829.192481806288,1029.19248180629,488.215357568785,688.215357568785,370.807518193712,570.807518193712,711.784642431215,0,0,0,0,0,4,0,0,NaN,NaN,horizontal,vertical,horizontal,horizontal,none,none
1c,10,100148,2,49,113,21,M,NA,variable,homogeneous,4,present,0.518496036529541,1,horizontal,horizontal,1,0.77647168636322,red,4,1,552.574589799621,538.309916622085,738.309916622085,847.425410200379,738.309916622085,847.425410200379,1047.42541020038,661.690083377915,861.690083377915,352.574589799621,552.574589799621,538.309916622085,0,0,0,0,0,0,0,4,NaN,NaN,vertical,horizontal,horizontal,horizontal,none,none
1c,10,100148,2,50,114,21,M,NA,variable,homogeneous,5,present,0.869399070739746,1,horizontal,horizontal,1,0.623529558181763,red,5,1,561.936991243214,691.383827134052,813.345668841951,854.650531362416,813.345668841951,854.650531362416,1046.31108570371,665.998856501143,938.882953928832,386.139005173917,639.523300282292,401.827779828472,561.936991243214,691.383827134052,0,0,0,0,0,0,4,NaN,vertical,vertical,horizontal,horizontal,horizontal,none
1c,10,100148,2,51,115,21,M,NA,variable,homogeneous,6,present,0.900683164596558,1,vertical,vertical,1,0.670588674545288,green,6,2,563.568117085469,695.524681321058,1000.94274216971,756.993676208043,764.510859255183,852.518357529101,1000.94274216971,756.993676208043,1036.43188291453,504.475318678942,835.489140744817,347.4816424709,599.057257830286,443.006323791957,563.568117085469,695.524681321058,0,0,0,0,0,4,horizontal,horizontal,vertical,horizontal,vertical,vertical
1c,10,100148,2,52,116,21,M,NA,variable,homogeneous,4,absent,0.651080131530762,1,vertical,vertical,1,0.823530802726746,red,2,NaN,1011.40458100154,742.594190385041,NaN,NaN,657.405809614959,811.404581001536,1011.40458100154,742.594190385041,942.594190385041,388.595418998464,588.595418998464,457.40580961496,0,0,0,0,0,4,0,0,NaN,NaN,horizontal,vertical,horizontal,vertical,none,none
1c,10,100148,2,53,117,21,M,NA,variable,homogeneous,5,absent,1.60865187644958,1,horizontal,horizontal,1,0.823530802726746,green,1,NaN,822.224714400653,854.029648013395,NaN,NaN,822.224714400653,854.029648013395,1048.46436652023,657.362518857686,931.334709102064,381.422338320961,632.704947607421,407.549057043193,565.271262369628,699.636437764765,0,0,4,0,0,0,0,NaN,horizontal,vertical,horizontal,vertical,vertical,none
1c,10,100148,2,54,118,21,M,NA,variable,homogeneous,4,absent,1.09312796592712,1,vertical,vertical,1,1.00000248908997,green,2,NaN,1025.15163617903,719.715248510402,NaN,NaN,680.284751489598,825.151636179026,1025.15163617903,719.715248510402,919.715248510402,374.848363820974,574.848363820974,480.284751489598,0,0,0,0,0,4,0,0,NaN,NaN,vertical,vertical,horizontal,horizontal,none,none
1c,10,100148,2,55,119,21,M,NA,variable,homogeneous,6,absent,1.48182392120361,1,vertical,vertical,1,0.929413814544678,red,4,NaN,887.215136548046,360.378381699593,NaN,NaN,712.784863451954,839.621618300407,963.910840470068,795.341332995339,1051.12597701811,555.719714694933,887.215136548046,360.378381699593,636.089159529932,404.658667004661,548.874022981887,644.280285305067,0,0,0,4,0,0,horizontal,vertical,horizontal,vertical,horizontal,horizontal
1c,10,100148,2,56,120,21,M,NA,variable,homogeneous,5,present,0.879138946533203,1,vertical,vertical,1,0.964708151817322,green,1,5,844.280285305067,851.125977018113,574.848363820974,719.715248510402,844.280285305067,851.125977018113,1052.5183575291,635.489140744817,911.784642431215,370.807518193712,616.568350913644,422.862115532956,574.848363820974,719.715248510402,0,0,4,0,0,0,0,NaN,vertical,vertical,vertical,vertical,horizontal,none
1c,10,100148,2,57,121,21,M,NA,variable,homogeneous,3,absent,0.606353044509888,1,horizontal,horizontal,1,0.670588674545288,green,3,NaN,546.39691668109,626.654758133252,NaN,NaN,949.885239334581,806.299333565612,903.717843984329,367.045908301137,546.39691668109,626.654758133252,0,0,0,0,0,0,0,0,4,NaN,NaN,NaN,vertical,horizontal,horizontal,none,none,none
1c,10,100148,2,58,122,21,M,NA,variable,homogeneous,5,absent,0.759935855865479,1,horizontal,horizontal,1,0.682353453636169,green,2,NaN,1053.09926866854,631.076682568313,NaN,NaN,848.656293821019,850.314931779154,1053.09926866854,631.076682568313,907.767656743878,368.891514305654,613.504806087112,426.090418184063,576.971974679454,723.626453162816,0,0,0,4,0,0,0,NaN,horizontal,horizontal,vertical,vertical,horizontal,none
1c,10,100148,2,59,123,21,M,NA,variable,homogeneous,5,absent,0.690889120101929,0,vertical,horizontal,1,0.976472930908203,red,1,NaN,895.524681321058,836.431882914531,NaN,NaN,895.524681321058,836.431882914531,1054.37883281626,582.212099195248,861.690083377915,352.574589799621,583.747735480111,464.870587620533,604.658667004661,763.910840470068,0,0,4,0,0,0,0,NaN,vertical,horizontal,vertical,vertical,vertical,none
1c,10,100148,2,60,124,21,M,NA,variable,homogeneous,5,present,1.12699508666992,1,vertical,vertical,1,0.894119477272034,green,3,5,907.767656743878,368.891514305654,576.971974679454,723.626453162816,848.656293821019,850.314931779154,1053.09926866854,631.076682568313,907.767656743878,368.891514305654,613.504806087112,426.090418184063,576.971974679454,723.626453162816,0,0,0,0,4,0,0,NaN,vertical,horizontal,vertical,vertical,horizontal,none
1c,10,100148,2,61,125,21,M,NA,variable,homogeneous,3,present,0.590638160705566,1,horizontal,horizontal,1,1.07059116363525,red,3,1,550.57236181288,546.982518841471,878.799333565612,842.519411655264,878.799333565612,842.519411655264,970.628304621509,410.498069503264,550.57236181288,546.982518841471,0,0,0,0,0,0,0,0,4,NaN,NaN,NaN,horizontal,horizontal,horizontal,none,none,none
1c,10,100148,2,62,126,21,M,NA,variable,homogeneous,6,absent,0.588191986083984,1,vertical,vertical,1,1.08235594272614,red,5,NaN,622.862115532956,416.568350913644,NaN,NaN,729.712474266665,845.121732464271,977.137884467044,783.431649086356,1047.42541020038,538.309916622085,870.287525733335,354.878267535729,622.862115532956,416.568350913644,552.574589799621,661.690083377915,0,0,0,0,4,0,horizontal,vertical,horizontal,vertical,vertical,horizontal
1c,10,100148,2,63,127,21,M,NA,variable,homogeneous,4,present,1.11626791954041,1,horizontal,horizontal,1,0.800001244544983,green,2,1,1011.40458100154,457.40580961496,942.594190385041,811.404581001536,942.594190385041,811.404581001536,1011.40458100154,457.40580961496,657.405809614959,388.595418998464,588.595418998464,742.594190385041,0,0,0,0,0,4,0,0,NaN,NaN,vertical,horizontal,horizontal,vertical,none,none
1c,10,100148,2,64,128,21,M,NA,variable,homogeneous,5,present,1.57061100006104,1,vertical,vertical,1,0.77647168636322,red,1,5,688.215357568785,829.192481806288,547.481642470899,564.510859255183,688.215357568785,829.192481806288,983.431649086356,777.137884467044,1025.15163617903,480.284751489598,755.719714694933,348.874022981887,547.481642470899,564.510859255183,0,0,4,0,0,0,0,NaN,vertical,vertical,vertical,vertical,vertical,none
1c,10,100148,3,1,129,21,M,NA,variable,homogeneous,6,absent,0.738306045532227,1,horizontal,horizontal,1,0.941178593635559,red,4,NaN,700.363562235235,365.271262369628,NaN,NaN,899.636437764765,834.728737630372,1053.09926866854,631.076682568313,953.462830903772,396.34794493794,700.363562235235,365.271262369628,546.900731331463,568.923317431687,646.537169096228,803.65205506206,0,0,0,4,0,0,horizontal,vertical,vertical,horizontal,horizontal,vertical
1c,10,100148,3,2,130,21,M,NA,variable,homogeneous,3,present,0.779132843017578,1,horizontal,horizontal,1,0.705883011817932,green,1,3,1011.40458100154,742.594190385041,570.807518193712,711.784642431215,1011.40458100154,742.594190385041,817.787900804752,345.621167183745,570.807518193712,711.784642431215,0,0,0,0,0,0,4,0,0,NaN,NaN,NaN,horizontal,horizontal,horizontal,none,none,none
1c,10,100148,3,3,131,21,M,NA,variable,homogeneous,4,absent,0.604092836380005,1,vertical,vertical,1,1.05882638454437,red,1,NaN,813.345668841951,854.650531362416,NaN,NaN,813.345668841951,854.650531362416,1054.65053136242,586.654331158049,786.654331158049,345.349468637584,545.349468637584,613.345668841951,0,0,0,0,4,0,0,0,NaN,NaN,vertical,horizontal,vertical,vertical,none,none
1c,10,100148,3,4,132,21,M,NA,variable,homogeneous,5,present,0.709641933441162,1,vertical,vertical,1,1.05882638454437,red,1,2,931.334709102064,818.577661679039,1048.46436652023,542.637481142314,931.334709102064,818.577661679039,1048.46436652023,542.637481142314,822.224714400653,345.970351986605,565.271262369628,500.363562235235,632.704947607421,792.450942956807,0,0,4,0,0,0,0,NaN,vertical,vertical,horizontal,horizontal,horizontal,none
1c,10,100148,3,5,133,21,M,NA,variable,homogeneous,3,absent,0.51252818107605,1,vertical,vertical,1,0.823530802726746,red,2,NaN,853.017481158529,350.57236181288,NaN,NaN,989.501930496736,770.628304621509,853.017481158529,350.57236181288,557.480588344736,678.799333565612,0,0,0,0,0,0,0,4,0,NaN,NaN,NaN,vertical,vertical,horizontal,none,none,none
1c,10,100148,3,6,134,21,M,NA,variable,homogeneous,6,present,0.528525114059448,1,horizontal,horizontal,1,0.682353453636169,green,2,4,983.431649086356,777.137884467044,861.690083377915,352.574589799621,738.309916622085,847.425410200379,983.431649086356,777.137884467044,1045.12173246427,529.712474266665,861.690083377915,352.574589799621,616.568350913644,422.862115532956,554.878267535729,670.287525733335,0,4,0,0,0,0,horizontal,horizontal,vertical,horizontal,horizontal,horizontal
1c,10,100148,3,7,135,21,M,NA,variable,homogeneous,6,present,1.179682970047,1,vertical,vertical,1,0.823530802726746,green,5,2,546.900731331463,568.923317431687,1053.09926866854,631.076682568313,899.636437764765,834.728737630372,1053.09926866854,631.076682568313,953.462830903772,396.34794493794,700.363562235235,365.271262369628,546.900731331463,568.923317431687,646.537169096228,803.65205506206,0,0,0,0,4,0,vertical,vertical,vertical,vertical,vertical,vertical
1c,10,100148,3,8,136,21,M,NA,variable,homogeneous,4,present,1.59627890586853,1,horizontal,horizontal,1,0.635294337272644,red,3,4,646.537169096228,396.34794493794,596.34794493794,753.462830903772,953.462830903772,803.65205506206,1003.65205506206,446.537169096228,646.537169096228,396.34794493794,596.34794493794,753.462830903772,0,0,0,0,0,0,4,0,NaN,NaN,vertical,horizontal,horizontal,vertical,none,none
1c,10,100148,3,9,137,21,M,NA,variable,homogeneous,6,present,0.752372980117798,1,vertical,vertical,1,0.788236465454102,red,4,1,915.767577433584,372.793336331966,684.232422566416,827.206663668034,684.232422566416,827.206663668034,938.882953928832,813.860994826083,1054.65053136242,586.654331158049,915.767577433584,372.793336331966,661.117046071168,386.139005173917,545.349468637584,613.345668841951,0,0,0,4,0,0,vertical,vertical,horizontal,vertical,vertical,horizontal
1c,10,100148,3,10,138,21,M,NA,variable,homogeneous,4,present,1.80231499671936,1,vertical,vertical,1,0.95294337272644,green,4,1,558.892763222174,683.019879386575,883.019879386575,841.107236777826,883.019879386575,841.107236777826,1041.10723677783,516.980120613425,716.980120613425,358.892763222174,558.892763222174,683.019879386575,0,0,0,0,0,0,0,4,NaN,NaN,vertical,vertical,horizontal,vertical,none,none
1c,10,100148,3,11,139,21,M,NA,variable,homogeneous,6,absent,0.692997932434082,1,vertical,vertical,1,0.705883011817932,red,6,NaN,613.504806087112,773.909581815937,NaN,NaN,857.362518857686,848.464366520235,1043.85771277057,674.554784704298,986.495193912888,426.090418184063,742.637481142314,351.535633479765,556.142287229426,525.445215295702,613.504806087112,773.909581815937,0,0,0,0,0,4,horizontal,horizontal,horizontal,horizontal,horizontal,vertical
1c,10,100148,3,12,140,21,M,NA,variable,homogeneous,5,absent,0.700353145599365,1,vertical,vertical,1,1.07059116363525,green,5,NaN,636.089159529932,795.341332995339,NaN,NaN,935.129412379467,816.252264519889,1047.42541020038,538.309916622085,817.787900804752,345.621167183745,563.568117085469,504.475318678942,636.089159529932,795.341332995339,0,0,0,0,0,0,4,NaN,vertical,horizontal,horizontal,horizontal,vertical,none
1c,10,100148,3,13,141,21,M,NA,variable,homogeneous,4,absent,0.567254066467285,1,vertical,vertical,1,0.835295581817627,red,4,NaN,563.568117085469,695.524681321058,NaN,NaN,895.524681321058,836.431882914531,1036.43188291453,504.475318678942,704.475318678942,363.568117085469,563.568117085469,695.524681321058,0,0,0,0,0,0,0,4,NaN,NaN,vertical,vertical,vertical,vertical,none,none
1c,10,100148,3,14,142,21,M,NA,variable,homogeneous,4,absent,0.476118087768555,1,vertical,vertical,1,1.05882638454437,green,3,NaN,786.654331158049,345.349468637584,NaN,NaN,813.345668841951,854.650531362416,1054.65053136242,586.654331158049,786.654331158049,345.349468637584,545.349468637584,613.345668841951,0,0,0,0,0,0,4,0,NaN,NaN,vertical,horizontal,vertical,horizontal,none,none
1c,10,100148,3,15,143,21,M,NA,variable,homogeneous,6,absent,0.608927011489868,1,horizontal,horizontal,1,0.752942128181457,green,4,NaN,927.5,379.163522034968,NaN,NaN,672.5,820.836477965032,927.5,820.836477965032,1055,600,927.5,379.163522034968,672.5,379.163522034968,545,600,0,0,0,4,0,0,vertical,vertical,horizontal,horizontal,horizontal,horizontal
1c,10,100148,3,16,144,21,M,NA,variable,homogeneous,6,present,0.887045860290527,1,horizontal,horizontal,1,0.894119477272034,red,6,1,664.870587620533,816.252264519889,919.715248510402,825.151636179026,919.715248510402,825.151636179026,1054.84466088987,608.899371659138,935.129412379467,383.747735480111,680.284751489598,374.848363820974,545.155339110131,591.100628340862,664.870587620533,816.252264519889,0,0,0,0,0,4,horizontal,horizontal,horizontal,horizontal,horizontal,horizontal
1c,10,100148,3,17,145,21,M,NA,variable,homogeneous,4,present,0.698328018188477,1,vertical,vertical,1,1.07059116363525,red,4,3,574.848363820974,480.284751489598,919.715248510402,374.848363820974,680.284751489598,825.151636179026,1025.15163617903,719.715248510402,919.715248510402,374.848363820974,574.848363820974,480.284751489598,0,0,0,0,0,0,0,4,NaN,NaN,vertical,vertical,vertical,vertical,none,none
1c,10,100148,3,18,146,21,M,NA,variable,homogeneous,4,present,1.5505850315094,1,horizontal,horizontal,1,0.905884256362915,green,4,3,593.700666434388,749.885239334581,650.114760665419,393.700666434388,949.885239334581,806.299333565612,1006.29933356561,450.114760665419,650.114760665419,393.700666434388,593.700666434388,749.885239334581,0,0,0,0,0,0,0,4,NaN,NaN,horizontal,horizontal,horizontal,horizontal,none,none
1c,10,100148,3,19,147,21,M,NA,variable,homogeneous,4,absent,0.69343113899231,1,vertical,vertical,1,1.00000248908997,green,4,NaN,607.549057043193,432.704947607421,NaN,NaN,632.704947607421,792.450942956807,992.450942956807,767.295052392579,967.295052392579,407.549057043193,607.549057043193,432.704947607421,0,0,0,0,0,0,0,4,NaN,NaN,vertical,horizontal,vertical,vertical,none,none
1c,10,100148,3,20,148,21,M,NA,variable,homogeneous,5,present,1.01426100730896,1,vertical,vertical,1,0.917649035453796,green,2,3,1049.42763818712,546.982518841471,826.654758133252,346.39691668109,927.5,820.836477965032,1049.42763818712,546.982518841471,826.654758133252,346.39691668109,567.045908301137,496.282156015671,629.371695378491,789.501930496736,0,0,0,4,0,0,0,NaN,horizontal,vertical,vertical,horizontal,horizontal,none
1c,10,100148,3,21,149,21,M,NA,variable,homogeneous,6,absent,0.68811297416687,1,horizontal,horizontal,1,0.670588674545288,red,4,NaN,676.373546837184,376.971974679454,NaN,NaN,923.626453162816,823.028025320546,1054.96116226488,604.450363641507,931.334709102064,381.422338320961,676.373546837184,376.971974679454,545.03883773512,595.549636358493,668.665290897936,818.577661679039,0,0,0,4,0,0,vertical,horizontal,horizontal,horizontal,horizontal,vertical
1c,10,100148,3,22,150,21,M,NA,variable,homogeneous,4,absent,0.693315029144287,1,horizontal,horizontal,1,0.764706907272339,green,2,NaN,1003.65205506206,446.537169096228,NaN,NaN,953.462830903772,803.65205506206,1003.65205506206,446.537169096228,646.537169096228,396.34794493794,596.34794493794,753.462830903772,0,0,0,0,0,4,0,0,NaN,NaN,horizontal,horizontal,vertical,horizontal,none,none
1c,10,100148,3,23,151,21,M,NA,variable,homogeneous,5,present,0.615111112594604,1,horizontal,horizontal,1,0.788236465454102,green,2,3,1031.10848569435,707.767656743878,973.909581815937,413.504806087112,768.923317431687,853.099268668537,1031.10848569435,707.767656743878,973.909581815937,413.504806087112,676.373546837184,376.971974679454,549.685068220846,648.656293821019,0,0,0,4,0,0,0,NaN,horizontal,horizontal,vertical,horizontal,vertical,none
1c,10,100148,3,24,152,21,M,NA,variable,homogeneous,3,absent,0.603446960449219,1,vertical,vertical,1,0.988237709999084,red,2,NaN,853.017481158529,350.57236181288,NaN,NaN,989.501930496736,770.628304621509,853.017481158529,350.57236181288,557.480588344736,678.799333565612,0,0,0,0,0,0,0,4,0,NaN,NaN,NaN,vertical,vertical,horizontal,none,none,none
1c,10,100148,3,25,153,21,M,NA,variable,homogeneous,4,absent,0.59785795211792,1,horizontal,horizontal,1,0.705883011817932,red,3,NaN,813.345668841951,345.349468637584,NaN,NaN,786.654331158049,854.650531362416,1054.65053136242,613.345668841951,813.345668841951,345.349468637584,545.349468637584,586.654331158049,0,0,0,0,0,0,4,0,NaN,NaN,vertical,vertical,horizontal,horizontal,none,none
1c,10,100148,3,26,154,21,M,NA,variable,homogeneous,6,present,0.96274209022522,1,horizontal,horizontal,1,1.03529682636261,green,1,6,808.899371659138,854.844660889869,583.747735480111,735.129412379467,808.899371659138,854.844660889869,1025.15163617903,719.715248510402,1016.25226451989,464.870587620533,791.100628340862,345.155339110131,574.848363820974,480.284751489598,583.747735480111,735.129412379467,4,0,0,0,0,0,horizontal,horizontal,horizontal,horizontal,horizontal,vertical
1c,10,100148,3,27,155,21,M,NA,variable,homogeneous,5,absent,0.792720079421997,1,vertical,vertical,1,0.741177349090576,red,4,NaN,760.109211414741,348.13947314824,NaN,NaN,684.232422566416,827.206663668034,980.31222920257,780.31222920257,1027.20666366803,484.232422566416,760.109211414741,348.13947314824,548.13947314824,560.109211414741,0,0,0,0,0,4,0,NaN,horizontal,horizontal,horizontal,vertical,vertical,none
1c,10,100148,3,28,156,21,M,NA,variable,homogeneous,5,absent,0.834963798522949,1,vertical,vertical,1,0.717647790908813,green,2,NaN,1052.5183575291,564.510859255183,NaN,NaN,911.784642431215,829.192481806288,1052.5183575291,564.510859255183,844.280285305067,348.874022981887,574.848363820974,480.284751489598,616.568350913644,777.137884467044,0,0,0,4,0,0,0,NaN,vertical,vertical,vertical,horizontal,horizontal,none
1c,10,100148,3,29,157,21,M,NA,variable,homogeneous,5,present,0.725305795669556,1,vertical,vertical,1,0.870589919090271,green,2,5,1011.40458100154,742.594190385041,545.155339110131,608.899371659138,729.712474266665,845.121732464271,1011.40458100154,742.594190385041,1000.94274216971,443.006323791957,712.784863451954,360.378381699593,545.155339110131,608.899371659138,0,0,0,4,0,0,0,NaN,vertical,vertical,vertical,horizontal,vertical,none
1c,10,100148,3,30,158,21,M,NA,variable,homogeneous,5,present,0.928327083587646,1,vertical,vertical,1,1.01176726818085,red,2,4,1039.62161830041,687.215136548046,657.405809614959,388.595418998464,791.100628340862,854.844660889869,1039.62161830041,687.215136548046,956.993676208043,399.057257830286,657.405809614959,388.595418998464,554.878267535729,670.287525733335,0,0,0,4,0,0,0,NaN,horizontal,vertical,vertical,vertical,horizontal,none
1c,10,100148,3,31,159,21,M,NA,variable,homogeneous,3,present,NaN,0,vertical,none,0,0.658823895454407,red,1,3,831.076682568313,853.099268668537,565.271262369628,500.363562235235,831.076682568313,853.099268668537,1003.65205506206,446.537169096228,565.271262369628,500.363562235235,0,0,0,0,0,0,4,0,0,NaN,NaN,NaN,vertical,vertical,vertical,none,none,none
1c,10,100148,3,32,160,21,M,NA,variable,homogeneous,3,absent,0.853561878204346,1,horizontal,horizontal,1,0.647059116363525,green,2,NaN,1013.86099482608,461.117046071168,NaN,NaN,813.345668841951,854.650531362416,1013.86099482608,461.117046071168,572.793336331966,484.232422566416,0,0,0,0,0,0,0,4,0,NaN,NaN,NaN,horizontal,horizontal,horizontal,none,none,none
1c,10,100148,3,33,161,21,M,NA,variable,homogeneous,6,absent,0.772792816162109,1,vertical,vertical,1,0.694118232727051,green,6,NaN,636.089159529932,795.341332995339,NaN,NaN,887.215136548046,839.621618300407,1051.12597701811,644.280285305067,963.910840470068,404.658667004661,712.784863451954,360.378381699593,548.874022981887,555.719714694933,636.089159529932,795.341332995339,0,0,0,0,0,4,vertical,vertical,horizontal,vertical,vertical,vertical
1c,10,100148,3,34,162,21,M,NA,variable,homogeneous,4,present,0.680980920791626,1,horizontal,horizontal,1,0.835295581817627,red,4,2,545.970351986605,577.775285599347,1054.0296480134,622.224714400653,777.775285599347,854.029648013395,1054.0296480134,622.224714400653,822.224714400653,345.970351986605,545.970351986605,577.775285599347,0,0,0,0,0,0,0,4,NaN,NaN,vertical,vertical,vertical,horizontal,none,none
1c,10,100148,3,35,163,21,M,NA,variable,homogeneous,3,present,0.771328926086426,0,horizontal,vertical,1,0.635294337272644,red,1,3,919.715248510402,825.151636179026,545.155339110131,591.100628340862,919.715248510402,825.151636179026,935.129412379467,383.747735480111,545.155339110131,591.100628340862,0,0,0,0,0,0,4,0,0,NaN,NaN,NaN,horizontal,horizontal,vertical,none,none,none
1c,10,100148,3,36,164,21,M,NA,variable,homogeneous,3,present,0.881722211837769,1,horizontal,horizontal,1,0.929413814544678,red,1,2,907.767656743878,831.108485694346,946.261991269517,391.116228706307,907.767656743878,831.108485694346,946.261991269517,391.116228706307,545.970351986605,577.775285599347,0,0,0,0,0,0,4,0,0,NaN,NaN,NaN,horizontal,vertical,horizontal,none,none,none
1c,10,100148,3,37,165,21,M,NA,variable,homogeneous,5,absent,0.565675020217896,1,horizontal,horizontal,1,0.717647790908813,green,1,NaN,721.200666434388,842.519411655264,NaN,NaN,721.200666434388,842.519411655264,1006.29933356561,749.885239334581,1006.29933356561,450.114760665419,721.200666434388,357.480588344736,545,600,0,0,4,0,0,0,0,NaN,horizontal,vertical,horizontal,horizontal,horizontal,none
1c,10,100148,3,38,166,21,M,NA,variable,homogeneous,6,present,0.637264013290405,1,vertical,vertical,1,0.800001244544983,red,2,1,1003.65205506206,753.462830903772,768.923317431687,853.099268668537,768.923317431687,853.099268668537,1003.65205506206,753.462830903772,1034.72873763037,500.363562235235,831.076682568313,346.900731331463,596.34794493794,446.537169096228,565.271262369628,699.636437764765,0,4,0,0,0,0,vertical,vertical,horizontal,vertical,horizontal,vertical
1c,10,100148,3,39,167,21,M,NA,variable,homogeneous,3,present,0.68602991104126,1,horizontal,horizontal,1,0.77647168636322,green,1,2,839.890788585259,851.86052685176,998.172220171528,439.523300282291,839.890788585259,851.86052685176,998.172220171528,439.523300282291,561.936991243214,508.616172865948,0,0,0,0,0,0,4,0,0,NaN,NaN,NaN,horizontal,horizontal,horizontal,none,none,none
1c,10,100148,3,40,168,21,M,NA,variable,homogeneous,5,absent,0.731389999389648,1,vertical,vertical,1,0.988237709999084,red,4,NaN,661.117046071168,386.139005173917,NaN,NaN,786.654331158049,854.650531362416,1038.06300875679,691.383827134052,960.476699717708,401.827779828472,661.117046071168,386.139005173917,553.688914296288,665.998856501143,0,0,0,0,0,4,0,NaN,horizontal,vertical,vertical,vertical,horizontal,none
1c,10,100148,3,41,169,21,M,NA,variable,homogeneous,3,present,0.784098863601685,1,vertical,vertical,1,0.694118232727051,green,1,3,629.371695378491,789.501930496736,721.200666434388,357.480588344736,629.371695378491,789.501930496736,1049.42763818712,653.017481158529,721.200666434388,357.480588344736,0,0,0,0,0,0,4,0,0,NaN,NaN,NaN,vertical,horizontal,vertical,none,none,none
1c,10,100148,3,42,170,21,M,NA,variable,homogeneous,3,absent,0.683970928192139,1,horizontal,horizontal,1,1.00000248908997,red,2,NaN,1047.42541020038,661.690083377915,NaN,NaN,622.862115532956,783.431649086356,1047.42541020038,661.690083377915,729.712474266665,354.878267535729,0,0,0,0,0,0,0,4,0,NaN,NaN,NaN,vertical,horizontal,vertical,none,none,none
1c,10,100148,3,43,171,21,M,NA,variable,homogeneous,3,absent,0.825644016265869,1,vertical,vertical,1,0.988237709999084,green,3,NaN,692.232343256122,368.891514305654,NaN,NaN,653.738008730483,808.883771293693,1054.0296480134,622.224714400653,692.232343256122,368.891514305654,0,0,0,0,0,0,0,0,4,NaN,NaN,NaN,horizontal,vertical,vertical,none,none,none
1c,10,100148,3,44,172,21,M,NA,variable,homogeneous,4,absent,0.543715953826904,1,horizontal,horizontal,1,0.670588674545288,green,4,NaN,599.057257830286,756.993676208043,NaN,NaN,956.993676208043,800.942742169714,1000.94274216971,443.006323791957,643.006323791957,399.057257830286,599.057257830286,756.993676208043,0,0,0,0,0,0,0,4,NaN,NaN,horizontal,horizontal,horizontal,horizontal,none,none
1c,10,100148,3,45,173,21,M,NA,variable,homogeneous,6,present,0.935293912887573,1,vertical,vertical,1,1.02353204727173,green,6,2,668.665290897936,818.577661679039,1054.96116226488,604.450363641507,923.626453162816,823.028025320546,1054.96116226488,604.450363641507,931.334709102064,381.422338320961,676.373546837184,376.971974679454,545.03883773512,595.549636358493,668.665290897936,818.577661679039,0,0,0,0,0,4,horizontal,horizontal,vertical,horizontal,horizontal,vertical
1c,10,100148,3,46,174,21,M,NA,variable,homogeneous,5,present,0.97665810585022,1,horizontal,horizontal,1,0.929413814544678,red,2,4,1054.84466088987,591.100628340862,588.595418998464,457.40580961496,887.215136548046,839.621618300407,1054.84466088987,591.100628340862,870.287525733335,354.878267535729,588.595418998464,457.40580961496,599.057257830286,756.993676208043,0,0,0,4,0,0,0,NaN,horizontal,horizontal,vertical,horizontal,vertical,none
1c,10,100148,3,47,175,21,M,NA,variable,homogeneous,3,absent,0.884006977081299,1,vertical,vertical,1,0.976472930908203,green,3,NaN,550.57236181288,546.982518841471,NaN,NaN,878.799333565612,842.519411655264,970.628304621509,410.498069503264,550.57236181288,546.982518841471,0,0,0,0,0,0,0,0,4,NaN,NaN,NaN,vertical,horizontal,vertical,none,none,none
1c,10,100148,3,48,176,21,M,NA,variable,homogeneous,6,absent,0.638991832733154,1,vertical,vertical,1,0.847060360908508,green,1,NaN,712.784863451954,839.621618300407,NaN,NaN,712.784863451954,839.621618300407,963.910840470068,795.341332995339,1051.12597701811,555.719714694933,887.215136548046,360.378381699593,636.089159529932,404.658667004661,548.874022981887,644.280285305067,4,0,0,0,0,0,vertical,vertical,horizontal,vertical,vertical,vertical
1c,10,100148,3,49,177,21,M,NA,variable,homogeneous,5,present,1.03135800361633,1,horizontal,horizontal,1,0.77647168636322,red,5,4,554.878267535729,529.712474266665,791.100628340862,345.155339110131,657.405809614959,811.404581001536,956.993676208043,800.942742169714,1039.62161830041,512.784863451954,791.100628340862,345.155339110131,554.878267535729,529.712474266665,0,0,0,0,0,0,4,NaN,horizontal,vertical,horizontal,horizontal,horizontal,none
1c,10,100148,3,50,178,21,M,NA,variable,homogeneous,3,absent,1.54568409919739,1,horizontal,horizontal,1,1.08235594272614,green,2,NaN,1032.95409169886,496.282156015671,NaN,NaN,773.345241866748,853.60308331891,1032.95409169886,496.282156015671,593.700666434388,450.114760665419,0,0,0,0,0,0,0,4,0,NaN,NaN,NaN,horizontal,horizontal,vertical,none,none,none
1c,10,100148,3,51,179,21,M,NA,variable,homogeneous,6,present,NaN,0,horizontal,none,0,0.764706907272339,red,4,1,915.767577433584,372.793336331966,684.232422566416,827.206663668034,684.232422566416,827.206663668034,938.882953928832,813.860994826083,1054.65053136242,586.654331158049,915.767577433584,372.793336331966,661.117046071168,386.139005173917,545.349468637584,613.345668841951,0,0,0,4,0,0,horizontal,horizontal,vertical,horizontal,horizontal,horizontal
1c,10,100148,3,52,180,21,M,NA,variable,homogeneous,3,present,1.52077412605286,1,vertical,vertical,1,1.00000248908997,red,1,2,591.116228706307,746.261991269517,1031.10848569435,707.767656743878,591.116228706307,746.261991269517,1031.10848569435,707.767656743878,777.775285599347,345.970351986605,0,0,0,0,0,0,4,0,0,NaN,NaN,NaN,vertical,vertical,vertical,none,none,none
1c,10,100148,3,53,181,21,M,NA,variable,homogeneous,5,absent,0.693788051605225,1,horizontal,horizontal,1,0.929413814544678,red,5,NaN,636.089159529932,795.341332995339,NaN,NaN,935.129412379467,816.252264519889,1047.42541020038,538.309916622085,817.787900804752,345.621167183745,563.568117085469,504.475318678942,636.089159529932,795.341332995339,0,0,0,0,0,0,4,NaN,horizontal,vertical,vertical,horizontal,horizontal,none
1c,10,100148,3,54,182,21,M,NA,variable,homogeneous,5,present,0.881007194519043,1,horizontal,horizontal,1,0.658823895454407,green,3,1,874.554784704298,356.142287229426,883.019879386575,841.107236777826,883.019879386575,841.107236777826,1054.96116226488,595.549636358493,874.554784704298,356.142287229426,591.116228706307,453.738008730483,596.34794493794,753.462830903772,0,0,0,0,4,0,0,NaN,horizontal,horizontal,horizontal,vertical,vertical,none
1c,10,100148,3,55,183,21,M,NA,variable,homogeneous,6,absent,0.551450967788696,1,horizontal,horizontal,1,0.635294337272644,green,2,NaN,956.993676208043,800.942742169714,NaN,NaN,704.475318678942,836.431882914531,956.993676208043,800.942742169714,1052.5183575291,564.510859255183,895.524681321058,363.568117085469,643.006323791957,399.057257830286,547.481642470899,635.489140744817,0,4,0,0,0,0,horizontal,horizontal,horizontal,horizontal,horizontal,horizontal
1c,10,100148,3,56,184,21,M,NA,variable,homogeneous,6,absent,0.556087970733643,1,vertical,vertical,1,0.658823895454407,red,2,NaN,1029.19248180629,711.784642431215,NaN,NaN,817.787900804752,854.378832816255,1029.19248180629,711.784642431215,1011.40458100154,457.40580961496,782.212099195248,345.621167183745,570.807518193712,488.215357568785,588.595418998464,742.594190385041,0,4,0,0,0,0,horizontal,vertical,horizontal,horizontal,vertical,horizontal
1c,10,100148,3,57,185,21,M,NA,variable,homogeneous,3,absent,0.568675994873047,1,horizontal,horizontal,1,0.670588674545288,red,2,NaN,1053.60308331891,573.345241866748,NaN,NaN,696.282156015671,832.954091698863,1053.60308331891,573.345241866748,650.114760665419,393.700666434388,0,0,0,0,0,0,0,4,0,NaN,NaN,NaN,horizontal,horizontal,vertical,none,none,none
1c,10,100148,3,58,186,21,M,NA,variable,homogeneous,5,absent,0.564023971557617,1,horizontal,horizontal,1,0.788236465454102,red,2,NaN,1053.09926866854,568.923317431687,NaN,NaN,907.767656743878,831.108485694346,1053.09926866854,568.923317431687,848.656293821019,349.685068220846,576.971974679454,476.373546837184,613.504806087112,773.909581815937,0,0,0,4,0,0,0,NaN,vertical,horizontal,horizontal,horizontal,vertical,none
1c,10,100148,3,59,187,21,M,NA,variable,homogeneous,4,present,0.82015585899353,1,vertical,vertical,1,0.623529558181763,green,1,3,751.343706178981,850.314931779154,848.656293821019,349.685068220846,751.343706178981,850.314931779154,1050.31493177915,648.656293821019,848.656293821019,349.685068220846,549.685068220846,551.343706178981,0,0,0,0,4,0,0,0,NaN,NaN,vertical,vertical,horizontal,vertical,none,none
1c,10,100148,3,60,188,21,M,NA,variable,homogeneous,3,present,0.501606941223145,1,vertical,vertical,1,0.647059116363525,green,1,2,967.295052392579,792.450942956807,883.019879386575,358.892763222174,967.295052392579,792.450942956807,883.019879386575,358.892763222174,549.685068220846,648.656293821019,0,0,0,0,0,0,4,0,0,NaN,NaN,NaN,vertical,horizontal,vertical,none,none,none
1c,10,100148,3,61,189,21,M,NA,variable,homogeneous,5,absent,0.578698873519897,1,horizontal,horizontal,1,0.95294337272644,green,5,NaN,619.68777079743,780.31222920257,NaN,NaN,915.767577433584,827.206663668034,1051.86052685176,560.109211414741,839.890788585259,348.13947314824,572.793336331966,484.232422566416,619.68777079743,780.31222920257,0,0,0,0,0,0,4,NaN,vertical,horizontal,vertical,horizontal,horizontal,none
1c,10,100148,3,62,190,21,M,NA,variable,homogeneous,4,absent,0.727606058120728,1,horizontal,horizontal,1,1.04706160545349,red,1,NaN,963.910840470068,795.341332995339,NaN,NaN,963.910840470068,795.341332995339,995.341332995339,436.089159529932,636.089159529932,404.658667004661,604.658667004661,763.910840470068,0,0,0,0,4,0,0,0,NaN,NaN,horizontal,vertical,vertical,horizontal,none,none
1c,10,100148,3,63,191,21,M,NA,variable,homogeneous,4,present,0.702572107315063,1,horizontal,horizontal,1,0.823530802726746,green,4,1,549.685068220846,648.656293821019,848.656293821019,850.314931779154,848.656293821019,850.314931779154,1050.31493177915,551.343706178981,751.343706178981,349.685068220846,549.685068220846,648.656293821019,0,0,0,0,0,0,0,4,NaN,NaN,vertical,vertical,vertical,horizontal,none,none
1c,10,100148,3,64,192,21,M,NA,variable,homogeneous,4,present,NaN,0,vertical,none,0,0.611764779090881,red,4,2,546.900731331463,568.923317431687,1053.09926866854,631.076682568313,768.923317431687,853.099268668537,1053.09926866854,631.076682568313,831.076682568313,346.900731331463,546.900731331463,568.923317431687,0,0,0,0,0,0,0,4,NaN,NaN,vertical,vertical,horizontal,vertical,none,none
1c,10,100148,4,1,193,21,M,NA,variable,homogeneous,5,absent,0.850949048995972,1,horizontal,horizontal,1,0.811766023635864,red,1,NaN,831.076682568313,853.099268668537,NaN,NaN,831.076682568313,853.099268668537,1050.31493177915,648.656293821019,923.626453162816,376.971974679454,626.090418184063,413.504806087112,568.891514305654,707.767656743878,0,0,4,0,0,0,0,NaN,horizontal,vertical,vertical,horizontal,vertical,none
1c,10,100148,4,2,194,21,M,NA,variable,homogeneous,5,present,0.590791940689087,1,vertical,vertical,1,0.929413814544678,green,5,3,546.900731331463,568.923317431687,1023.02802532055,476.373546837184,692.232343256122,831.108485694346,986.495193912888,773.909581815937,1023.02802532055,476.373546837184,751.343706178981,349.685068220846,546.900731331463,568.923317431687,0,0,0,0,0,0,4,NaN,vertical,vertical,vertical,horizontal,vertical,none
1c,10,100148,4,3,195,21,M,NA,variable,homogeneous,4,present,1.32351803779602,1,vertical,vertical,1,0.835295581817627,green,2,1,1029.19248180629,488.215357568785,911.784642431215,829.192481806288,911.784642431215,829.192481806288,1029.19248180629,488.215357568785,688.215357568785,370.807518193712,570.807518193712,711.784642431215,0,0,0,0,0,4,0,0,NaN,NaN,vertical,vertical,vertical,vertical,none,none
1c,10,100148,4,4,196,21,M,NA,variable,homogeneous,6,absent,0.580399036407471,1,horizontal,horizontal,1,0.917649035453796,green,4,NaN,746.982518841471,350.57236181288,NaN,NaN,853.017481158529,849.42763818712,1042.51941165526,678.799333565612,989.501930496736,429.371695378491,746.982518841471,350.57236181288,557.480588344736,521.200666434388,610.498069503264,770.628304621509,0,0,0,4,0,0,horizontal,horizontal,vertical,horizontal,horizontal,horizontal
1c,10,100148,4,5,197,21,M,NA,variable,homogeneous,3,present,1.81065607070923,1,vertical,vertical,1,0.917649035453796,green,3,1,568.891514305654,492.232343256122,822.224714400653,854.029648013395,822.224714400653,854.029648013395,1008.88377129369,453.738008730483,568.891514305654,492.232343256122,0,0,0,0,0,0,0,0,4,NaN,NaN,NaN,horizontal,vertical,vertical,none,none,none
1c,10,100148,4,6,198,21,M,NA,variable,homogeneous,5,absent,0.630406141281128,1,horizontal,horizontal,1,0.964708151817322,green,5,NaN,557.480588344736,678.799333565612,NaN,NaN,800,855,1042.51941165526,678.799333565612,949.885239334581,393.700666434388,650.114760665419,393.700666434388,557.480588344736,678.799333565612,0,0,0,0,0,0,4,NaN,horizontal,vertical,horizontal,horizontal,horizontal,none
1c,10,100148,4,7,199,21,M,NA,variable,homogeneous,4,present,0.528661012649536,1,horizontal,horizontal,1,0.882354698181152,green,4,2,572.793336331966,484.232422566416,1027.20666366803,715.767577433584,684.232422566416,827.206663668034,1027.20666366803,715.767577433584,915.767577433584,372.793336331966,572.793336331966,484.232422566416,0,0,0,0,0,0,0,4,NaN,NaN,horizontal,horizontal,horizontal,horizontal,none,none
1c,10,100148,4,8,200,21,M,NA,variable,homogeneous,5,absent,0.81936502456665,1,horizontal,horizontal,1,0.800001244544983,green,3,NaN,998.172220171528,439.523300282291,NaN,NaN,734.001143498857,846.311085703712,1013.86099482608,738.882953928832,998.172220171528,439.523300282291,708.616172865948,361.936991243214,545.349468637584,613.345668841951,0,0,0,0,4,0,0,NaN,vertical,horizontal,horizontal,vertical,vertical,none
1c,10,100148,4,9,201,21,M,NA,variable,homogeneous,4,present,0.588203907012939,1,vertical,vertical,1,1.00000248908997,red,3,4,708.616172865948,361.936991243214,561.936991243214,691.383827134052,891.383827134052,838.063008756786,1038.06300875679,508.616172865948,708.616172865948,361.936991243214,561.936991243214,691.383827134052,0,0,0,0,0,0,4,0,NaN,NaN,vertical,horizontal,vertical,vertical,none,none
1c,10,100148,4,10,202,21,M,NA,variable,homogeneous,4,present,0.762333869934082,1,horizontal,horizontal,1,0.905884256362915,green,4,3,581.422338320961,731.334709102064,668.665290897936,381.422338320961,931.334709102064,818.577661679039,1018.57766167904,468.665290897936,668.665290897936,381.422338320961,581.422338320961,731.334709102064,0,0,0,0,0,0,0,4,NaN,NaN,vertical,horizontal,horizontal,horizontal,none,none
1c,10,100148,4,11,203,21,M,NA,variable,homogeneous,5,present,0.81792688369751,1,vertical,vertical,1,0.811766023635864,green,5,3,551.535633479765,542.637481142314,1034.72873763037,500.363562235235,668.665290897936,818.577661679039,967.295052392579,792.450942956807,1034.72873763037,500.363562235235,777.775285599347,345.970351986605,551.535633479765,542.637481142314,0,0,0,0,0,0,4,NaN,horizontal,horizontal,vertical,horizontal,vertical,none
1c,10,100148,4,12,204,21,M,NA,variable,homogeneous,6,absent,0.882647037506104,1,horizontal,horizontal,1,1.02353204727173,green,6,NaN,557.480588344736,678.799333565612,NaN,NaN,746.982518841471,849.42763818712,989.501930496736,770.628304621509,1042.51941165526,521.200666434388,853.017481158529,350.57236181288,610.498069503264,429.371695378491,557.480588344736,678.799333565612,0,0,0,0,0,4,vertical,horizontal,horizontal,vertical,horizontal,horizontal
1c,10,100148,4,13,205,21,M,NA,variable,homogeneous,4,absent,0.616842031478882,1,horizontal,horizontal,1,0.611764779090881,green,2,NaN,1032.95409169886,703.717843984329,NaN,NaN,696.282156015671,832.954091698863,1032.95409169886,703.717843984329,903.717843984329,367.045908301137,567.045908301137,496.282156015671,0,0,0,0,0,4,0,0,NaN,NaN,vertical,horizontal,vertical,horizontal,none,none
1c,10,100148,4,14,206,21,M,NA,variable,homogeneous,3,absent,0.55585789680481,1,horizontal,horizontal,1,0.717647790908813,red,3,NaN,629.371695378491,410.498069503264,NaN,NaN,721.200666434388,842.519411655264,1049.42763818712,546.982518841471,629.371695378491,410.498069503264,0,0,0,0,0,0,0,0,4,NaN,NaN,NaN,horizontal,horizontal,horizontal,none,none,none
1c,10,100148,4,15,207,21,M,NA,variable,homogeneous,3,absent,1.55522918701172,1,horizontal,horizontal,1,1.01176726818085,green,3,NaN,688.215357568785,370.807518193712,NaN,NaN,657.405809614959,811.404581001536,1054.37883281626,617.787900804752,688.215357568785,370.807518193712,0,0,0,0,0,0,0,0,4,NaN,NaN,NaN,horizontal,horizontal,horizontal,none,none,none
1c,10,100148,4,16,208,21,M,NA,variable,homogeneous,4,absent,1.34442019462585,0,horizontal,vertical,1,0.870589919090271,red,2,NaN,1042.51941165526,521.200666434388,NaN,NaN,878.799333565612,842.519411655264,1042.51941165526,521.200666434388,721.200666434388,357.480588344736,557.480588344736,678.799333565612,0,0,0,0,0,4,0,0,NaN,NaN,vertical,horizontal,horizontal,vertical,none,none
1c,10,100148,4,17,209,21,M,NA,variable,homogeneous,3,present,1.1060791015625,1,horizontal,horizontal,1,0.941178593635559,green,3,2,734.001143498857,353.688914296288,1046.31108570371,665.998856501143,619.68777079743,780.31222920257,1046.31108570371,665.998856501143,734.001143498857,353.688914296288,0,0,0,0,0,0,0,0,4,NaN,NaN,NaN,horizontal,vertical,horizontal,none,none,none
1c,10,100148,4,18,210,21,M,NA,variable,homogeneous,6,absent,1.1127769947052,1,horizontal,horizontal,1,1.01176726818085,red,4,NaN,746.982518841471,350.57236181288,NaN,NaN,853.017481158529,849.42763818712,1042.51941165526,678.799333565612,989.501930496736,429.371695378491,746.982518841471,350.57236181288,557.480588344736,521.200666434388,610.498069503264,770.628304621509,0,0,0,4,0,0,horizontal,vertical,vertical,horizontal,vertical,horizontal
1c,10,100148,4,19,211,21,M,NA,variable,homogeneous,6,present,0.930141925811768,1,horizontal,horizontal,1,0.95294337272644,green,5,4,561.936991243214,508.616172865948,760.109211414741,348.13947314824,839.890788585259,851.86052685176,1038.06300875679,691.383827134052,998.172220171528,439.523300282291,760.109211414741,348.13947314824,561.936991243214,508.616172865948,601.827779828472,760.476699717708,0,0,0,0,4,0,vertical,horizontal,horizontal,horizontal,horizontal,horizontal
1c,10,100148,4,20,212,21,M,NA,variable,homogeneous,3,absent,0.667975902557373,1,vertical,vertical,1,0.95294337272644,red,3,NaN,751.343706178981,349.685068220846,NaN,NaN,607.549057043193,767.295052392579,1041.10723677783,683.019879386575,751.343706178981,349.685068220846,0,0,0,0,0,0,0,0,4,NaN,NaN,NaN,vertical,vertical,vertical,none,none,none
1c,10,100148,4,21,213,21,M,NA,variable,homogeneous,6,present,0.90039587020874,1,vertical,vertical,1,0.95294337272644,green,1,5,768.923317431687,853.099268668537,596.34794493794,446.537169096228,768.923317431687,853.099268668537,1003.65205506206,753.462830903772,1034.72873763037,500.363562235235,831.076682568313,346.900731331463,596.34794493794,446.537169096228,565.271262369628,699.636437764765,4,0,0,0,0,0,vertical,vertical,vertical,vertical,vertical,horizontal
1c,10,100148,4,22,214,21,M,NA,variable,homogeneous,5,present,0.665292978286743,1,vertical,vertical,1,0.729412569999695,red,4,1,619.68777079743,419.68777079743,839.890788585259,851.86052685176,839.890788585259,851.86052685176,1051.86052685176,639.890788585259,915.767577433584,372.793336331966,619.68777079743,419.68777079743,572.793336331966,715.767577433584,0,0,0,0,0,4,0,NaN,vertical,vertical,horizontal,vertical,vertical,none
1c,10,100148,4,23,215,21,M,NA,variable,homogeneous,5,absent,0.586323976516724,1,vertical,vertical,1,0.77647168636322,red,5,NaN,548.13947314824,560.109211414741,NaN,NaN,684.232422566416,827.206663668034,980.31222920257,780.31222920257,1027.20666366803,484.232422566416,760.109211414741,348.13947314824,548.13947314824,560.109211414741,0,0,0,0,0,0,4,NaN,horizontal,vertical,vertical,horizontal,vertical,none
1c,10,100148,4,24,216,21,M,NA,variable,homogeneous,3,absent,0.534997940063477,0,horizontal,vertical,1,0.647059116363525,red,2,NaN,1039.62161830041,512.784863451954,NaN,NaN,755.719714694933,851.125977018113,1039.62161830041,512.784863451954,604.658667004661,436.089159529932,0,0,0,0,0,0,0,4,0,NaN,NaN,NaN,vertical,horizontal,vertical,none,none,none
1c,10,100148,4,25,217,21,M,NA,variable,homogeneous,4,absent,0.748213768005371,1,vertical,vertical,1,0.917649035453796,green,1,NaN,782.212099195248,854.378832816255,NaN,NaN,782.212099195248,854.378832816255,1054.37883281626,617.787900804752,817.787900804752,345.621167183745,545.621167183745,582.212099195248,0,0,0,0,4,0,0,0,NaN,NaN,vertical,horizontal,horizontal,horizontal,none,none
1c,10,100148,4,26,218,21,M,NA,variable,homogeneous,4,present,0.678031921386719,1,vertical,vertical,1,0.941178593635559,green,2,1,986.495193912888,773.909581815937,626.090418184063,786.495193912888,626.090418184063,786.495193912888,986.495193912888,773.909581815937,973.909581815937,413.504806087112,613.504806087112,426.090418184063,0,0,0,0,0,4,0,0,NaN,NaN,vertical,vertical,vertical,horizontal,none,none
1c,10,100148,4,27,219,21,M,NA,variable,homogeneous,3,absent,0.545430898666382,1,vertical,vertical,1,1.08235594272614,red,1,NaN,923.626453162816,823.028025320546,NaN,NaN,923.626453162816,823.028025320546,931.334709102064,381.422338320961,545.03883773512,595.549636358493,0,0,0,0,0,0,4,0,0,NaN,NaN,NaN,vertical,vertical,vertical,none,none,none
1c,10,100148,4,28,220,21,M,NA,variable,homogeneous,6,absent,0.501603126525879,1,vertical,vertical,1,0.85882513999939,red,1,NaN,692.232343256122,831.108485694346,NaN,NaN,692.232343256122,831.108485694346,946.261991269517,808.883771293693,1054.0296480134,577.775285599347,907.767656743878,368.891514305654,653.738008730483,391.116228706307,545.970351986605,622.224714400653,4,0,0,0,0,0,vertical,horizontal,horizontal,vertical,horizontal,vertical
1c,10,100148,4,29,221,21,M,NA,variable,homogeneous,6,absent,0.432500123977661,1,vertical,vertical,1,1.03529682636261,red,1,NaN,791.100628340862,854.844660889869,NaN,NaN,791.100628340862,854.844660889869,1016.25226451989,735.129412379467,1025.15163617903,480.284751489598,808.899371659138,345.155339110131,583.747735480111,464.870587620533,574.848363820974,719.715248510402,4,0,0,0,0,0,vertical,vertical,horizontal,horizontal,vertical,vertical
1c,10,100148,4,30,222,21,M,NA,variable,homogeneous,6,absent,0.58545708656311,1,vertical,vertical,1,0.811766023635864,green,6,NaN,554.878267535729,670.287525733335,NaN,NaN,738.309916622085,847.425410200379,983.431649086356,777.137884467044,1045.12173246427,529.712474266665,861.690083377915,352.574589799621,616.568350913644,422.862115532956,554.878267535729,670.287525733335,0,0,0,0,0,4,vertical,vertical,vertical,vertical,vertical,vertical
1c,10,100148,4,31,223,21,M,NA,variable,homogeneous,5,absent,0.467899799346924,1,horizontal,horizontal,1,0.929413814544678,red,4,NaN,626.090418184063,413.504806087112,NaN,NaN,831.076682568313,853.099268668537,1050.31493177915,648.656293821019,923.626453162816,376.971974679454,626.090418184063,413.504806087112,568.891514305654,707.767656743878,0,0,0,0,0,4,0,NaN,vertical,vertical,horizontal,horizontal,horizontal,none
1c,10,100148,4,32,224,21,M,NA,variable,homogeneous,5,present,0.498026132583618,1,horizontal,horizontal,1,0.835295581817627,red,4,5,657.405809614959,388.595418998464,554.878267535729,670.287525733335,791.100628340862,854.844660889869,1039.62161830041,687.215136548046,956.993676208043,399.057257830286,657.405809614959,388.595418998464,554.878267535729,670.287525733335,0,0,0,0,0,4,0,NaN,horizontal,horizontal,vertical,horizontal,vertical,none
1c,10,100148,4,33,225,21,M,NA,variable,homogeneous,6,present,1.2173900604248,0,horizontal,vertical,1,0.847060360908508,red,3,1,949.885239334581,393.700666434388,903.717843984329,832.954091698863,903.717843984329,832.954091698863,1053.60308331891,626.654758133252,949.885239334581,393.700666434388,696.282156015671,367.045908301137,546.39691668109,573.345241866748,650.114760665419,806.299333565612,0,0,4,0,0,0,vertical,horizontal,horizontal,horizontal,vertical,vertical
1c,10,100148,4,34,226,21,M,NA,variable,homogeneous,4,absent,0.622404098510742,1,horizontal,horizontal,1,0.635294337272644,green,3,NaN,878.799333565612,357.480588344736,NaN,NaN,721.200666434388,842.519411655264,1042.51941165526,678.799333565612,878.799333565612,357.480588344736,557.480588344736,521.200666434388,0,0,0,0,0,0,4,0,NaN,NaN,horizontal,vertical,horizontal,horizontal,none,none
1c,10,100148,4,35,227,21,M,NA,variable,homogeneous,6,present,1.83058285713196,1,vertical,vertical,1,0.764706907272339,green,6,4,546.900731331463,631.076682568313,899.636437764765,365.271262369628,700.363562235235,834.728737630372,953.462830903772,803.65205506206,1053.09926866854,568.923317431687,899.636437764765,365.271262369628,646.537169096228,396.34794493794,546.900731331463,631.076682568313,0,0,0,0,0,4,horizontal,vertical,vertical,vertical,vertical,vertical
1c,10,100148,4,36,228,21,M,NA,variable,homogeneous,5,present,0.681241035461426,1,horizontal,horizontal,1,0.705883011817932,green,4,3,643.006323791957,399.057257830286,942.594190385041,388.595418998464,808.899371659138,854.844660889869,1045.12173246427,670.287525733335,942.594190385041,388.595418998464,643.006323791957,399.057257830286,560.378381699593,687.215136548046,0,0,0,0,0,4,0,NaN,vertical,vertical,horizontal,horizontal,horizontal,none
1c,10,100148,4,37,229,21,M,NA,variable,homogeneous,3,present,0.79137110710144,1,vertical,vertical,1,0.623529558181763,red,2,3,989.501930496736,429.371695378491,557.480588344736,521.200666434388,853.017481158529,849.42763818712,989.501930496736,429.371695378491,557.480588344736,521.200666434388,0,0,0,0,0,0,0,4,0,NaN,NaN,NaN,horizontal,vertical,vertical,none,none,none
1c,10,100148,4,38,230,21,M,NA,variable,homogeneous,6,present,0.599800109863281,0,vertical,horizontal,1,0.623529558181763,red,1,2,804.450363641507,854.96116226488,1023.02802532055,723.626453162816,804.450363641507,854.96116226488,1023.02802532055,723.626453162816,1018.57766167904,468.665290897936,795.549636358493,345.03883773512,576.971974679454,476.373546837184,581.422338320961,731.334709102064,4,0,0,0,0,0,vertical,horizontal,vertical,vertical,horizontal,vertical
1c,10,100148,4,39,231,21,M,NA,variable,homogeneous,3,absent,0.87380313873291,1,vertical,vertical,1,0.882354698181152,green,3,NaN,795.549636358493,345.03883773512,NaN,NaN,581.422338320961,731.334709102064,1023.02802532055,723.626453162816,795.549636358493,345.03883773512,0,0,0,0,0,0,0,0,4,NaN,NaN,NaN,vertical,vertical,vertical,none,none,none
1c,10,100148,4,40,232,21,M,NA,variable,homogeneous,4,absent,0.840129137039185,1,horizontal,horizontal,1,1.02353204727173,red,1,NaN,977.137884467044,783.431649086356,NaN,NaN,977.137884467044,783.431649086356,983.431649086356,422.862115532956,622.862115532956,416.568350913644,616.568350913644,777.137884467044,0,0,0,0,4,0,0,0,NaN,NaN,horizontal,horizontal,horizontal,horizontal,none,none
1c,10,100148,4,41,233,21,M,NA,variable,homogeneous,5,absent,0.856945037841797,1,vertical,vertical,1,0.800001244544983,green,5,NaN,556.142287229426,674.554784704298,NaN,NaN,795.549636358493,854.96116226488,1041.10723677783,683.019879386575,953.462830903772,396.34794493794,653.738008730483,391.116228706307,556.142287229426,674.554784704298,0,0,0,0,0,0,4,NaN,vertical,vertical,horizontal,vertical,vertical,none
1c,10,100148,4,42,234,21,M,NA,variable,homogeneous,6,present,NaN,0,horizontal,none,0,0.658823895454407,green,6,4,650.114760665419,806.299333565612,696.282156015671,367.045908301137,903.717843984329,832.954091698863,1053.60308331891,626.654758133252,949.885239334581,393.700666434388,696.282156015671,367.045908301137,546.39691668109,573.345241866748,650.114760665419,806.299333565612,0,0,0,0,0,4,horizontal,vertical,horizontal,vertical,horizontal,horizontal
1c,10,100148,4,43,235,21,M,NA,variable,homogeneous,5,present,1.01648998260498,0,horizontal,vertical,1,1.04706160545349,green,4,5,591.116228706307,453.738008730483,596.34794493794,753.462830903772,883.019879386575,841.107236777826,1054.96116226488,595.549636358493,874.554784704298,356.142287229426,591.116228706307,453.738008730483,596.34794493794,753.462830903772,0,0,0,0,0,4,0,NaN,vertical,horizontal,vertical,horizontal,vertical,none
1c,10,100148,4,44,236,21,M,NA,variable,homogeneous,4,absent,0.800990104675293,1,vertical,vertical,1,0.6,red,1,NaN,676.373546837184,823.028025320546,NaN,NaN,676.373546837184,823.028025320546,1023.02802532055,723.626453162816,923.626453162816,376.971974679454,576.971974679454,476.373546837184,0,0,0,0,4,0,0,0,NaN,NaN,vertical,horizontal,horizontal,horizontal,none,none
1c,10,100148,4,45,237,21,M,NA,variable,homogeneous,4,absent,0.530385971069336,1,vertical,vertical,1,1.05882638454437,green,4,NaN,558.892763222174,516.980120613425,NaN,NaN,716.980120613425,841.107236777826,1041.10723677783,683.019879386575,883.019879386575,358.892763222174,558.892763222174,516.980120613425,0,0,0,0,0,0,0,4,NaN,NaN,horizontal,horizontal,vertical,vertical,none,none
1c,10,100148,4,46,238,21,M,NA,variable,homogeneous,6,absent,0.687302112579346,1,horizontal,horizontal,1,0.694118232727051,red,1,NaN,911.784642431215,829.192481806288,NaN,NaN,911.784642431215,829.192481806288,1054.37883281626,617.787900804752,942.594190385041,388.595418998464,688.215357568785,370.807518193712,545.621167183745,582.212099195248,657.405809614959,811.404581001536,4,0,0,0,0,0,horizontal,horizontal,vertical,vertical,vertical,horizontal
1c,10,100148,4,47,239,21,M,NA,variable,homogeneous,3,absent,0.605837106704712,1,horizontal,horizontal,1,0.635294337272644,green,1,NaN,919.715248510402,825.151636179026,NaN,NaN,919.715248510402,825.151636179026,935.129412379467,383.747735480111,545.155339110131,591.100628340862,0,0,0,0,0,0,4,0,0,NaN,NaN,NaN,horizontal,vertical,horizontal,none,none,none
1c,10,100148,4,48,240,21,M,NA,variable,homogeneous,3,absent,0.546548128128052,1,vertical,vertical,1,1.02353204727173,green,3,NaN,546.39691668109,626.654758133252,NaN,NaN,949.885239334581,806.299333565612,903.717843984329,367.045908301137,546.39691668109,626.654758133252,0,0,0,0,0,0,0,0,4,NaN,NaN,NaN,vertical,vertical,vertical,none,none,none
1c,10,100148,4,49,241,21,M,NA,variable,homogeneous,3,present,0.751268148422241,1,horizontal,horizontal,1,0.682353453636169,green,2,3,907.767656743878,368.891514305654,545.970351986605,622.224714400653,946.261991269517,808.883771293693,907.767656743878,368.891514305654,545.970351986605,622.224714400653,0,0,0,0,0,0,0,4,0,NaN,NaN,NaN,vertical,horizontal,horizontal,none,none,none
1c,10,100148,4,50,242,21,M,NA,variable,homogeneous,4,present,1.23512005805969,1,horizontal,horizontal,1,0.835295581817627,red,3,4,878.799333565612,357.480588344736,557.480588344736,521.200666434388,721.200666434388,842.519411655264,1042.51941165526,678.799333565612,878.799333565612,357.480588344736,557.480588344736,521.200666434388,0,0,0,0,0,0,4,0,NaN,NaN,horizontal,vertical,horizontal,vertical,none,none
1c,10,100148,4,51,243,21,M,NA,variable,homogeneous,5,absent,0.72153902053833,1,vertical,vertical,1,1.05882638454437,red,3,NaN,1020.83647796503,472.5,NaN,NaN,696.282156015671,832.954091698863,989.501930496736,770.628304621509,1020.83647796503,472.5,746.982518841471,350.57236181288,546.39691668109,573.345241866748,0,0,0,0,4,0,0,NaN,vertical,vertical,vertical,vertical,vertical,none
1c,10,100148,4,52,244,21,M,NA,variable,homogeneous,3,present,1.02352285385132,1,vertical,vertical,1,0.77647168636322,red,1,2,616.568350913644,777.137884467044,1045.12173246427,670.287525733335,616.568350913644,777.137884467044,1045.12173246427,670.287525733335,738.309916622085,352.574589799621,0,0,0,0,0,0,4,0,0,NaN,NaN,NaN,vertical,vertical,vertical,none,none,none
