experiment,subject,uniqueID,block,trial,trial_cumulative,age,gender,color_cond_blocking,color_history,shape_type,set_size,distractor,rt,acc,target_orient,response_key,response_made,iti,target_color,target_item,distractor_item,target_X,target_Y,distractor_X,distractor_Y,item1_X,item1_Y,item2_X,item2_Y,item3_X,item3_Y,item4_X,item4_Y,item5_X,item5_Y,item6_X,item6_Y,item1_shape,item2_shape,item3_shape,item4_shape,item5_shape,item6_shape,item1_line,item2_line,item3_line,item4_line,item5_line,item6_line
1c,11,100147,1,1,1,20,F,NA,variable,homogeneous,4,absent,0.96057391166687,1,horizontal,horizontal,1,0.670586156845093,green,3,NaN,680.284751489598,374.848363820974,NaN,NaN,919.715248510402,825.151636179026,1025.15163617903,480.284751489598,680.284751489598,374.848363820974,574.848363820974,719.715248510402,0,0,0,0,0,0,4,0,NaN,NaN,vertical,horizontal,horizontal,vertical,none,none
1c,11,100147,1,2,2,20,F,NA,variable,homogeneous,3,present,1.19608497619629,1,horizontal,horizontal,1,1.02351694107056,green,2,1,1041.10723677783,683.019879386575,607.549057043193,767.295052392579,607.549057043193,767.295052392579,1041.10723677783,683.019879386575,751.343706178981,349.685068220846,0,0,0,0,0,0,0,4,0,NaN,NaN,NaN,vertical,horizontal,vertical,none,none,none
1c,11,100147,1,3,3,20,F,NA,variable,homogeneous,3,present,1.0207040309906,1,vertical,vertical,1,1.02351694107056,green,1,3,646.537169096228,803.65205506206,700.363562235235,365.271262369628,646.537169096228,803.65205506206,1053.09926866854,631.076682568313,700.363562235235,365.271262369628,0,0,0,0,0,0,4,0,0,NaN,NaN,NaN,vertical,horizontal,horizontal,none,none,none
1c,11,100147,1,4,4,20,F,NA,variable,homogeneous,4,present,0.706604957580566,1,vertical,vertical,1,0.682350516319275,green,4,1,593.700666434388,749.885239334581,949.885239334581,806.299333565612,949.885239334581,806.299333565612,1006.29933356561,450.114760665419,650.114760665419,393.700666434388,593.700666434388,749.885239334581,0,0,0,0,0,0,0,4,NaN,NaN,horizontal,horizontal,vertical,vertical,none,none
1c,11,100147,1,5,5,20,F,NA,variable,homogeneous,6,absent,0.874365091323853,1,vertical,vertical,1,0.858815908432007,green,2,NaN,963.910840470068,795.341332995339,NaN,NaN,712.784863451954,839.621618300407,963.910840470068,795.341332995339,1051.12597701811,555.719714694933,887.215136548046,360.378381699593,636.089159529932,404.658667004661,548.874022981887,644.280285305067,0,4,0,0,0,0,horizontal,vertical,horizontal,horizontal,horizontal,vertical
1c,11,100147,1,6,6,20,F,NA,variable,homogeneous,4,present,1.08051800727844,1,horizontal,horizontal,1,1.02351694107056,red,2,1,1003.65205506206,753.462830903772,646.537169096228,803.65205506206,646.537169096228,803.65205506206,1003.65205506206,753.462830903772,953.462830903772,396.34794493794,596.34794493794,446.537169096228,0,0,0,0,0,4,0,0,NaN,NaN,horizontal,horizontal,vertical,horizontal,none,none
1c,11,100147,1,7,7,20,F,NA,variable,homogeneous,4,absent,1.16095113754272,1,horizontal,horizontal,1,0.741172313690186,red,4,NaN,616.568350913644,777.137884467044,NaN,NaN,977.137884467044,783.431649086356,983.431649086356,422.862115532956,622.862115532956,416.568350913644,616.568350913644,777.137884467044,0,0,0,0,0,0,0,4,NaN,NaN,horizontal,vertical,vertical,horizontal,none,none
1c,11,100147,1,8,8,20,F,NA,variable,homogeneous,5,present,0.817045927047729,1,vertical,vertical,1,1.03528130054474,green,4,2,746.982518841471,350.57236181288,989.501930496736,770.628304621509,696.282156015671,832.954091698863,989.501930496736,770.628304621509,1020.83647796503,472.5,746.982518841471,350.57236181288,546.39691668109,573.345241866748,0,0,0,0,0,4,0,NaN,horizontal,vertical,vertical,vertical,horizontal,none
1c,11,100147,1,9,9,20,F,NA,variable,homogeneous,6,present,0.727628946304321,1,horizontal,horizontal,1,0.705879235267639,green,4,2,742.637481142314,351.535633479765,1043.85771277057,674.554784704298,857.362518857686,848.464366520235,1043.85771277057,674.554784704298,986.495193912888,426.090418184063,742.637481142314,351.535633479765,556.142287229426,525.445215295702,613.504806087112,773.909581815937,0,0,0,4,0,0,horizontal,vertical,vertical,horizontal,horizontal,vertical
1c,11,100147,1,10,10,20,F,NA,variable,homogeneous,6,present,0.975838899612427,1,vertical,vertical,1,1.07057437896729,red,1,6,751.343706178981,850.314931779154,558.892763222174,683.019879386575,751.343706178981,850.314931779154,992.450942956807,767.295052392579,1041.10723677783,516.980120613425,848.656293821019,349.685068220846,607.549057043193,432.704947607421,558.892763222174,683.019879386575,4,0,0,0,0,0,vertical,horizontal,vertical,horizontal,vertical,vertical
1c,11,100147,1,11,11,20,F,NA,variable,homogeneous,4,present,1.08868408203125,1,vertical,vertical,1,1.0588100194931,red,2,1,1051.12597701811,555.719714694933,844.280285305067,851.125977018113,844.280285305067,851.125977018113,1051.12597701811,555.719714694933,755.719714694933,348.874022981887,548.874022981887,644.280285305067,0,0,0,0,0,4,0,0,NaN,NaN,vertical,vertical,horizontal,horizontal,none,none
1c,11,100147,1,12,12,20,F,NA,variable,homogeneous,5,present,0.924365043640137,1,vertical,vertical,1,0.894108986854553,green,4,3,583.747735480111,464.870587620533,861.690083377915,352.574589799621,895.524681321058,836.431882914531,1054.37883281626,582.212099195248,861.690083377915,352.574589799621,583.747735480111,464.870587620533,604.658667004661,763.910840470068,0,0,0,0,0,4,0,NaN,vertical,horizontal,vertical,vertical,vertical,none
1c,11,100147,1,13,13,20,F,NA,variable,homogeneous,5,absent,0.917145967483521,1,vertical,vertical,1,0.694114875793457,red,1,NaN,791.100628340862,854.844660889869,NaN,NaN,791.100628340862,854.844660889869,1039.62161830041,687.215136548046,956.993676208043,399.057257830286,657.405809614959,388.595418998464,554.878267535729,670.287525733335,0,0,4,0,0,0,0,NaN,vertical,horizontal,vertical,horizontal,vertical,none
1c,11,100147,1,14,14,20,F,NA,variable,homogeneous,5,present,0.68778395652771,1,horizontal,horizontal,1,0.611764359474182,red,5,4,557.480588344736,521.200666434388,800,345,650.114760665419,806.299333565612,949.885239334581,806.299333565612,1042.51941165526,521.200666434388,800,345,557.480588344736,521.200666434388,0,0,0,0,0,0,4,NaN,horizontal,vertical,vertical,vertical,horizontal,none
1c,11,100147,1,15,15,20,F,NA,variable,homogeneous,6,present,0.879380941390991,1,vertical,vertical,1,1.08233873844147,green,5,1,567.045908301137,496.282156015671,826.654758133252,853.60308331891,826.654758133252,853.60308331891,1032.95409169886,703.717843984329,1006.29933356561,450.114760665419,773.345241866748,346.39691668109,567.045908301137,496.282156015671,593.700666434388,749.885239334581,0,0,0,0,4,0,horizontal,vertical,vertical,horizontal,vertical,horizontal
1c,11,100147,1,16,16,20,F,NA,variable,homogeneous,5,absent,1.0257580280304,1,vertical,vertical,1,1.03528130054474,green,3,NaN,1038.06300875679,508.616172865948,NaN,NaN,661.117046071168,813.860994826083,960.476699717708,798.172220171528,1038.06300875679,508.616172865948,786.654331158049,345.349468637584,553.688914296288,534.001143498857,0,0,0,0,4,0,0,NaN,horizontal,horizontal,vertical,horizontal,horizontal,none
1c,11,100147,1,17,17,20,F,NA,variable,homogeneous,4,present,0.635093927383423,1,vertical,vertical,1,1.03528130054474,green,1,3,653.738008730483,808.883771293693,946.261991269517,391.116228706307,653.738008730483,808.883771293693,1008.88377129369,746.261991269517,946.261991269517,391.116228706307,591.116228706307,453.738008730483,0,0,0,0,4,0,0,0,NaN,NaN,vertical,horizontal,vertical,vertical,none,none
1c,11,100147,1,18,18,20,F,NA,variable,homogeneous,3,present,0.609730005264282,1,vertical,vertical,1,0.882344627380371,red,1,3,764.510859255183,852.518357529101,599.057257830286,443.006323791957,764.510859255183,852.518357529101,1036.43188291453,504.475318678942,599.057257830286,443.006323791957,0,0,0,0,0,0,4,0,0,NaN,NaN,NaN,vertical,vertical,vertical,none,none,none
1c,11,100147,1,19,19,20,F,NA,variable,homogeneous,4,absent,0.704614162445068,1,vertical,vertical,1,0.717643594741821,green,3,NaN,755.719714694933,348.874022981887,NaN,NaN,844.280285305067,851.125977018113,1051.12597701811,555.719714694933,755.719714694933,348.874022981887,548.874022981887,644.280285305067,0,0,0,0,0,0,4,0,NaN,NaN,vertical,horizontal,vertical,horizontal,none,none
1c,11,100147,1,20,20,20,F,NA,variable,homogeneous,5,present,1.02499604225159,1,horizontal,horizontal,1,0.705879235267639,red,3,4,1025.15163617903,480.284751489598,755.719714694933,348.874022981887,688.215357568785,829.192481806288,983.431649086356,777.137884467044,1025.15163617903,480.284751489598,755.719714694933,348.874022981887,547.481642470899,564.510859255183,0,0,0,0,4,0,0,NaN,horizontal,horizontal,horizontal,horizontal,vertical,none
1c,11,100147,1,21,21,20,F,NA,variable,homogeneous,3,present,0.847532033920288,1,vertical,vertical,1,0.694114875793457,green,1,3,738.309916622085,847.425410200379,616.568350913644,422.862115532956,738.309916622085,847.425410200379,1045.12173246427,529.712474266665,616.568350913644,422.862115532956,0,0,0,0,0,0,4,0,0,NaN,NaN,NaN,vertical,horizontal,vertical,none,none,none
1c,11,100147,1,22,22,20,F,NA,variable,homogeneous,5,present,0.962548017501831,1,vertical,vertical,1,0.882344627380371,red,1,4,729.712474266665,845.121732464271,712.784863451954,360.378381699593,729.712474266665,845.121732464271,1011.40458100154,742.594190385041,1000.94274216971,443.006323791957,712.784863451954,360.378381699593,545.155339110131,608.899371659138,0,0,4,0,0,0,0,NaN,vertical,vertical,horizontal,vertical,vertical,none
1c,11,100147,1,23,23,20,F,NA,variable,homogeneous,4,present,0.678978204727173,1,horizontal,horizontal,1,1.04704566001892,green,4,1,547.481642470899,635.489140744817,835.489140744817,852.518357529101,835.489140744817,852.518357529101,1052.5183575291,564.510859255183,764.510859255183,347.4816424709,547.481642470899,635.489140744817,0,0,0,0,0,0,0,4,NaN,NaN,vertical,horizontal,vertical,horizontal,none,none
1c,11,100147,1,24,24,20,F,NA,variable,homogeneous,6,present,0.745803117752075,1,vertical,vertical,1,0.658821797370911,green,3,5,983.431649086356,422.862115532956,554.878267535729,529.712474266665,861.690083377915,847.425410200379,1045.12173246427,670.287525733335,983.431649086356,422.862115532956,738.309916622085,352.574589799621,554.878267535729,529.712474266665,616.568350913644,777.137884467044,0,0,4,0,0,0,horizontal,horizontal,vertical,vertical,vertical,vertical
1c,11,100147,1,25,25,20,F,NA,variable,homogeneous,6,absent,0.661005020141602,1,vertical,vertical,1,0.611764359474182,red,6,NaN,545.155339110131,608.899371659138,NaN,NaN,680.284751489598,825.151636179026,935.129412379467,816.252264519889,1054.84466088987,591.100628340862,919.715248510402,374.848363820974,664.870587620533,383.747735480111,545.155339110131,608.899371659138,0,0,0,0,0,4,horizontal,vertical,horizontal,vertical,horizontal,vertical
1c,11,100147,1,26,26,20,F,NA,variable,homogeneous,4,absent,0.690430164337158,1,horizontal,horizontal,1,0.611764359474182,green,1,NaN,977.137884467044,783.431649086356,NaN,NaN,977.137884467044,783.431649086356,983.431649086356,422.862115532956,622.862115532956,416.568350913644,616.568350913644,777.137884467044,0,0,0,0,4,0,0,0,NaN,NaN,horizontal,horizontal,vertical,horizontal,none,none
1c,11,100147,1,27,27,20,F,NA,variable,homogeneous,5,present,0.738310098648071,1,vertical,vertical,1,0.682350516319275,red,2,5,1013.86099482608,738.882953928832,545.349468637584,613.345668841951,734.001143498857,846.311085703712,1013.86099482608,738.882953928832,998.172220171528,439.523300282291,708.616172865948,361.936991243214,545.349468637584,613.345668841951,0,0,0,4,0,0,0,NaN,horizontal,vertical,horizontal,horizontal,vertical,none
1c,11,100147,1,28,28,20,F,NA,variable,homogeneous,5,absent,0.927484035491943,1,horizontal,horizontal,1,0.717643594741821,green,2,NaN,963.910840470068,795.341332995339,NaN,NaN,664.870587620533,816.252264519889,963.910840470068,795.341332995339,1036.43188291453,504.475318678942,782.212099195248,345.621167183745,552.574589799621,538.309916622085,0,0,0,4,0,0,0,NaN,horizontal,horizontal,vertical,vertical,vertical,none
1c,11,100147,1,29,29,20,F,NA,variable,homogeneous,6,present,0.764765024185181,1,horizontal,horizontal,1,0.9294020652771,red,4,2,903.717843984329,367.045908301137,949.885239334581,806.299333565612,696.282156015671,832.954091698863,949.885239334581,806.299333565612,1053.60308331891,573.345241866748,903.717843984329,367.045908301137,650.114760665419,393.700666434388,546.39691668109,626.654758133252,0,0,0,4,0,0,horizontal,horizontal,horizontal,horizontal,horizontal,vertical
1c,11,100147,1,30,30,20,F,NA,variable,homogeneous,6,present,0.884982109069824,1,horizontal,horizontal,1,0.847051548957825,red,6,5,550.57236181288,653.017481158529,629.371695378491,410.498069503264,721.200666434388,842.519411655264,970.628304621509,789.501930496736,1049.42763818712,546.982518841471,878.799333565612,357.480588344736,629.371695378491,410.498069503264,550.57236181288,653.017481158529,0,0,0,0,0,4,vertical,vertical,vertical,horizontal,horizontal,horizontal
1c,11,100147,1,31,31,20,F,NA,variable,homogeneous,5,absent,0.72671103477478,1,vertical,vertical,1,0.976459503173828,red,4,NaN,563.568117085469,504.475318678942,NaN,NaN,935.129412379467,816.252264519889,1047.42541020038,538.309916622085,817.787900804752,345.621167183745,563.568117085469,504.475318678942,636.089159529932,795.341332995339,0,0,0,0,0,4,0,NaN,vertical,horizontal,vertical,vertical,horizontal,none
1c,11,100147,1,32,32,20,F,NA,variable,homogeneous,4,absent,0.701693773269653,0,vertical,horizontal,1,0.623528718948364,green,2,NaN,1013.86099482608,738.882953928832,NaN,NaN,661.117046071168,813.860994826083,1013.86099482608,738.882953928832,938.882953928832,386.139005173917,586.139005173917,461.117046071168,0,0,0,0,0,4,0,0,NaN,NaN,horizontal,vertical,vertical,vertical,none,none
1c,11,100147,1,33,33,20,F,NA,variable,homogeneous,5,present,1.12673020362854,1,horizontal,horizontal,1,0.741172313690186,green,1,4,870.287525733335,845.121732464271,599.057257830286,443.006323791957,870.287525733335,845.121732464271,1054.84466088987,608.899371659138,887.215136548046,360.378381699593,599.057257830286,443.006323791957,588.595418998464,742.594190385041,0,0,4,0,0,0,0,NaN,horizontal,vertical,horizontal,horizontal,vertical,none
1c,11,100147,1,34,34,20,F,NA,variable,homogeneous,4,absent,0.68473219871521,1,horizontal,horizontal,1,0.752936673164368,red,2,NaN,1003.65205506206,446.537169096228,NaN,NaN,953.462830903772,803.65205506206,1003.65205506206,446.537169096228,646.537169096228,396.34794493794,596.34794493794,753.462830903772,0,0,0,0,0,4,0,0,NaN,NaN,vertical,horizontal,vertical,vertical,none,none
1c,11,100147,1,35,35,20,F,NA,variable,homogeneous,3,absent,0.962316989898682,1,vertical,vertical,1,1.01175258159637,red,2,NaN,844.280285305067,348.874022981887,NaN,NaN,995.341332995339,763.910840470068,844.280285305067,348.874022981887,560.378381699593,687.215136548046,0,0,0,0,0,0,0,4,0,NaN,NaN,NaN,vertical,vertical,vertical,none,none,none
1c,11,100147,1,36,36,20,F,NA,variable,homogeneous,6,present,0.863808155059814,1,horizontal,horizontal,1,0.894108986854553,green,6,2,553.688914296288,665.998856501143,980.31222920257,780.31222920257,734.001143498857,846.311085703712,980.31222920257,780.31222920257,1046.31108570371,534.001143498857,865.998856501143,353.688914296288,619.68777079743,419.68777079743,553.688914296288,665.998856501143,0,0,0,0,0,4,vertical,vertical,horizontal,vertical,horizontal,horizontal
1c,11,100147,1,37,37,20,F,NA,variable,homogeneous,3,absent,0.755452156066895,1,horizontal,horizontal,1,1.09410309791565,green,1,NaN,986.495193912888,773.909581815937,NaN,NaN,986.495193912888,773.909581815937,857.362518857686,351.535633479765,556.142287229426,674.554784704298,0,0,0,0,0,0,4,0,0,NaN,NaN,NaN,horizontal,horizontal,vertical,none,none,none
1c,11,100147,1,38,38,20,F,NA,variable,homogeneous,6,absent,0.683925151824951,1,vertical,vertical,1,1.08233873844147,green,3,NaN,1054.37883281626,582.212099195248,NaN,NaN,688.215357568785,829.192481806288,942.594190385041,811.404581001536,1054.37883281626,582.212099195248,911.784642431215,370.807518193712,657.405809614959,388.595418998464,545.621167183745,617.787900804752,0,0,4,0,0,0,vertical,vertical,vertical,horizontal,horizontal,vertical
1c,11,100147,1,39,39,20,F,NA,variable,homogeneous,3,present,1.10015916824341,1,vertical,vertical,1,0.905873346328735,red,3,2,579.163522034968,727.5,800,345,1020.83647796503,727.5,800,345,579.163522034968,727.5,0,0,0,0,0,0,0,0,4,NaN,NaN,NaN,horizontal,vertical,vertical,none,none,none
1c,11,100147,1,40,40,20,F,NA,variable,homogeneous,4,present,0.742143869400024,1,horizontal,horizontal,1,0.788229751586914,red,2,1,1003.65205506206,446.537169096228,953.462830903772,803.65205506206,953.462830903772,803.65205506206,1003.65205506206,446.537169096228,646.537169096228,396.34794493794,596.34794493794,753.462830903772,0,0,0,0,0,4,0,0,NaN,NaN,vertical,horizontal,horizontal,vertical,none,none
1c,11,100147,1,41,41,20,F,NA,variable,homogeneous,4,absent,0.652803182601929,0,vertical,horizontal,1,0.776465392112732,red,2,NaN,1036.43188291453,504.475318678942,NaN,NaN,895.524681321058,836.431882914531,1036.43188291453,504.475318678942,704.475318678942,363.568117085469,563.568117085469,695.524681321058,0,0,0,0,0,4,0,0,NaN,NaN,vertical,vertical,vertical,vertical,none,none
1c,11,100147,1,42,42,20,F,NA,variable,homogeneous,6,absent,0.931381940841675,1,horizontal,horizontal,1,0.870580267906189,red,1,NaN,725.445215295702,843.857712770574,NaN,NaN,725.445215295702,843.857712770574,973.909581815937,786.495193912888,1048.46436652023,542.637481142314,874.554784704298,356.142287229426,626.090418184063,413.504806087112,551.535633479765,657.362518857686,4,0,0,0,0,0,horizontal,horizontal,horizontal,horizontal,vertical,horizontal
1c,11,100147,1,43,43,20,F,NA,variable,homogeneous,4,absent,0.81437611579895,1,vertical,vertical,1,0.999988222122192,red,3,NaN,768.923317431687,346.900731331463,NaN,NaN,831.076682568313,853.099268668537,1053.09926866854,568.923317431687,768.923317431687,346.900731331463,546.900731331463,631.076682568313,0,0,0,0,0,0,4,0,NaN,NaN,horizontal,horizontal,vertical,horizontal,none,none
1c,11,100147,1,44,44,20,F,NA,variable,homogeneous,4,present,1.08677911758423,1,vertical,vertical,1,0.999988222122192,red,4,3,563.568117085469,504.475318678942,895.524681321058,363.568117085469,704.475318678942,836.431882914531,1036.43188291453,695.524681321058,895.524681321058,363.568117085469,563.568117085469,504.475318678942,0,0,0,0,0,0,0,4,NaN,NaN,vertical,horizontal,horizontal,vertical,none,none
1c,11,100147,1,45,45,20,F,NA,variable,homogeneous,6,absent,1.40626096725464,1,vertical,vertical,1,0.682350516319275,red,3,NaN,1029.19248180629,488.215357568785,NaN,NaN,782.212099195248,854.378832816255,1011.40458100154,742.594190385041,1029.19248180629,488.215357568785,817.787900804752,345.621167183745,588.595418998464,457.40580961496,570.807518193712,711.784642431215,0,0,4,0,0,0,horizontal,horizontal,vertical,vertical,vertical,vertical
1c,11,100147,1,46,46,20,F,NA,variable,homogeneous,5,present,0.871833086013794,1,horizontal,horizontal,1,0.658821797370911,green,5,4,579.163522034968,727.5,610.498069503264,429.371695378491,853.017481158529,849.42763818712,1053.60308331891,626.654758133252,903.717843984329,367.045908301137,610.498069503264,429.371695378491,579.163522034968,727.5,0,0,0,0,0,0,4,NaN,horizontal,vertical,vertical,vertical,horizontal,none
1c,11,100147,1,47,47,20,F,NA,variable,homogeneous,3,absent,1.111083984375,1,horizontal,horizontal,1,1.07057437896729,red,3,NaN,551.535633479765,542.637481142314,NaN,NaN,874.554784704298,843.857712770574,973.909581815937,413.504806087112,551.535633479765,542.637481142314,0,0,0,0,0,0,0,0,4,NaN,NaN,NaN,vertical,horizontal,horizontal,none,none,none
1c,11,100147,1,48,48,20,F,NA,variable,homogeneous,5,absent,0.880254983901978,1,horizontal,horizontal,1,0.952930784225464,red,1,NaN,813.345668841951,854.650531362416,NaN,NaN,813.345668841951,854.650531362416,1046.31108570371,665.998856501143,938.882953928832,386.139005173917,639.523300282292,401.827779828472,561.936991243214,691.383827134052,0,0,4,0,0,0,0,NaN,horizontal,vertical,vertical,horizontal,horizontal,none
1c,11,100147,1,49,49,20,F,NA,variable,homogeneous,4,present,1.22624516487122,1,horizontal,horizontal,1,0.611764359474182,green,1,3,927.5,820.836477965032,672.5,379.163522034968,927.5,820.836477965032,1020.83647796503,472.5,672.5,379.163522034968,579.163522034968,727.5,0,0,0,0,4,0,0,0,NaN,NaN,horizontal,horizontal,vertical,vertical,none,none
1c,11,100147,1,50,50,20,F,NA,variable,homogeneous,3,absent,0.751078128814697,1,vertical,vertical,1,0.6,red,1,NaN,661.117046071168,813.860994826083,NaN,NaN,661.117046071168,813.860994826083,1054.65053136242,613.345668841951,684.232422566416,372.793336331966,0,0,0,0,0,0,4,0,0,NaN,NaN,NaN,vertical,vertical,horizontal,none,none,none
1c,11,100147,1,51,51,20,F,NA,variable,homogeneous,6,absent,0.780293941497803,1,horizontal,horizontal,1,0.705879235267639,red,5,NaN,556.142287229426,525.445215295702,NaN,NaN,857.362518857686,848.464366520235,1043.85771277057,674.554784704298,986.495193912888,426.090418184063,742.637481142314,351.535633479765,556.142287229426,525.445215295702,613.504806087112,773.909581815937,0,0,0,0,4,0,vertical,vertical,horizontal,vertical,horizontal,horizontal
1c,11,100147,1,52,52,20,F,NA,variable,homogeneous,3,present,0.672705173492432,1,horizontal,horizontal,1,0.82352283000946,red,2,3,903.717843984329,367.045908301137,546.39691668109,626.654758133252,949.885239334581,806.299333565612,903.717843984329,367.045908301137,546.39691668109,626.654758133252,0,0,0,0,0,0,0,4,0,NaN,NaN,NaN,horizontal,horizontal,horizontal,none,none,none
1c,11,100147,1,53,53,20,F,NA,variable,homogeneous,5,absent,0.642153978347778,1,horizontal,horizontal,1,0.788229751586914,red,2,NaN,1049.42763818712,546.982518841471,NaN,NaN,927.5,820.836477965032,1049.42763818712,546.982518841471,826.654758133252,346.39691668109,567.045908301137,496.282156015671,629.371695378491,789.501930496736,0,0,0,4,0,0,0,NaN,vertical,horizontal,vertical,horizontal,horizontal,none
1c,11,100147,1,54,54,20,F,NA,variable,homogeneous,6,present,1.22972989082336,1,vertical,vertical,1,0.941166424751282,red,2,6,953.462830903772,803.65205506206,546.900731331463,631.076682568313,700.363562235235,834.728737630372,953.462830903772,803.65205506206,1053.09926866854,568.923317431687,899.636437764765,365.271262369628,646.537169096228,396.34794493794,546.900731331463,631.076682568313,0,4,0,0,0,0,vertical,vertical,horizontal,vertical,vertical,vertical
1c,11,100147,1,55,55,20,F,NA,variable,homogeneous,3,absent,0.869714975357056,1,horizontal,horizontal,1,0.964695143699646,red,3,NaN,601.827779828472,439.523300282291,NaN,NaN,760.109211414741,851.86052685176,1038.06300875679,508.616172865948,601.827779828472,439.523300282291,0,0,0,0,0,0,0,0,4,NaN,NaN,NaN,horizontal,vertical,horizontal,none,none,none
1c,11,100147,1,56,56,20,F,NA,variable,homogeneous,3,present,0.721014976501465,1,horizontal,horizontal,1,0.882344627380371,red,1,2,953.462830903772,803.65205506206,899.636437764765,365.271262369628,953.462830903772,803.65205506206,899.636437764765,365.271262369628,546.900731331463,631.076682568313,0,0,0,0,0,0,4,0,0,NaN,NaN,NaN,horizontal,vertical,horizontal,none,none,none
1c,11,100147,1,57,57,20,F,NA,variable,homogeneous,6,absent,0.961738109588623,1,horizontal,horizontal,1,0.694114875793457,green,4,NaN,813.345668841951,345.349468637584,NaN,NaN,786.654331158049,854.650531362416,1013.86099482608,738.882953928832,1027.20666366803,484.232422566416,813.345668841951,345.349468637584,586.139005173917,461.117046071168,572.793336331966,715.767577433584,0,0,0,4,0,0,vertical,vertical,horizontal,horizontal,horizontal,horizontal
1c,11,100147,1,58,58,20,F,NA,variable,homogeneous,5,absent,0.806896924972534,1,vertical,vertical,1,1.09410309791565,green,5,NaN,568.891514305654,707.767656743878,NaN,NaN,831.076682568313,853.099268668537,1050.31493177915,648.656293821019,923.626453162816,376.971974679454,626.090418184063,413.504806087112,568.891514305654,707.767656743878,0,0,0,0,0,0,4,NaN,vertical,horizontal,horizontal,vertical,vertical,none
1c,11,100147,1,59,59,20,F,NA,variable,homogeneous,3,absent,0.706725120544434,1,horizontal,horizontal,1,0.776465392112732,green,2,NaN,1038.06300875679,508.616172865948,NaN,NaN,760.109211414741,851.86052685176,1038.06300875679,508.616172865948,601.827779828472,439.523300282291,0,0,0,0,0,0,0,4,0,NaN,NaN,NaN,horizontal,horizontal,horizontal,none,none,none
1c,11,100147,1,60,60,20,F,NA,variable,homogeneous,3,present,1.0381178855896,1,horizontal,horizontal,1,1.04704566001892,green,2,3,861.690083377915,352.574589799621,554.878267535729,670.287525733335,983.431649086356,777.137884467044,861.690083377915,352.574589799621,554.878267535729,670.287525733335,0,0,0,0,0,0,0,4,0,NaN,NaN,NaN,vertical,horizontal,vertical,none,none,none
1c,11,100147,1,61,61,20,F,NA,variable,homogeneous,5,absent,0.91929292678833,1,horizontal,horizontal,1,0.799994111061096,green,5,NaN,646.537169096228,803.65205506206,NaN,NaN,946.261991269517,808.883771293693,1043.85771277057,525.445215295702,804.450363641507,345.03883773512,558.892763222174,516.980120613425,646.537169096228,803.65205506206,0,0,0,0,0,0,4,NaN,horizontal,horizontal,horizontal,vertical,horizontal,none
1c,11,100147,1,62,62,20,F,NA,variable,homogeneous,6,absent,0.591264963150024,1,horizontal,horizontal,1,0.870580267906189,green,6,NaN,556.142287229426,674.554784704298,NaN,NaN,742.637481142314,848.464366520235,986.495193912888,773.909581815937,1043.85771277057,525.445215295702,857.362518857686,351.535633479765,613.504806087112,426.090418184063,556.142287229426,674.554784704298,0,0,0,0,0,4,vertical,horizontal,vertical,horizontal,horizontal,horizontal
1c,11,100147,1,63,63,20,F,NA,variable,homogeneous,3,absent,0.584314107894897,1,vertical,vertical,1,0.847051548957825,green,1,NaN,684.232422566416,827.206663668034,NaN,NaN,684.232422566416,827.206663668034,1054.65053136242,586.654331158049,661.117046071168,386.139005173917,0,0,0,0,0,0,4,0,0,NaN,NaN,NaN,vertical,vertical,vertical,none,none,none
1c,11,100147,1,64,64,20,F,NA,variable,homogeneous,3,absent,0.580813884735107,1,vertical,vertical,1,0.647057437896729,green,3,NaN,777.775285599347,345.970351986605,NaN,NaN,591.116228706307,746.261991269517,1031.10848569435,707.767656743878,777.775285599347,345.970351986605,0,0,0,0,0,0,0,0,4,NaN,NaN,NaN,vertical,horizontal,vertical,none,none,none
1c,11,100147,2,1,65,20,F,NA,variable,homogeneous,6,present,1.18020009994507,1,vertical,vertical,1,0.870580267906189,red,1,5,680.284751489598,825.151636179026,664.870587620533,383.747735480111,680.284751489598,825.151636179026,935.129412379467,816.252264519889,1054.84466088987,591.100628340862,919.715248510402,374.848363820974,664.870587620533,383.747735480111,545.155339110131,608.899371659138,4,0,0,0,0,0,vertical,vertical,horizontal,vertical,horizontal,vertical
1c,11,100147,2,2,66,20,F,NA,variable,homogeneous,6,present,0.617284059524536,1,vertical,vertical,1,1.07057437896729,green,4,3,839.890788585259,348.13947314824,1038.06300875679,508.616172865948,760.109211414741,851.86052685176,998.172220171528,760.476699717708,1038.06300875679,508.616172865948,839.890788585259,348.13947314824,601.827779828472,439.523300282291,561.936991243214,691.383827134052,0,0,0,4,0,0,horizontal,horizontal,horizontal,vertical,horizontal,vertical
1c,11,100147,2,3,67,20,F,NA,variable,homogeneous,3,present,0.55859899520874,1,vertical,vertical,1,0.635293078422546,red,2,3,1029.19248180629,711.784642431215,782.212099195248,345.621167183745,588.595418998464,742.594190385041,1029.19248180629,711.784642431215,782.212099195248,345.621167183745,0,0,0,0,0,0,0,4,0,NaN,NaN,NaN,vertical,vertical,horizontal,none,none,none
1c,11,100147,2,4,68,20,F,NA,variable,homogeneous,5,present,0.606700897216797,1,vertical,vertical,1,0.635293078422546,red,2,1,1054.37883281626,582.212099195248,895.524681321058,836.431882914531,895.524681321058,836.431882914531,1054.37883281626,582.212099195248,861.690083377915,352.574589799621,583.747735480111,464.870587620533,604.658667004661,763.910840470068,0,0,0,4,0,0,0,NaN,horizontal,vertical,horizontal,horizontal,vertical,none
1c,11,100147,2,5,69,20,F,NA,variable,homogeneous,5,present,0.644806861877441,1,vertical,vertical,1,0.694114875793457,green,2,3,1049.42763818712,653.017481158529,927.5,379.163522034968,826.654758133252,853.60308331891,1049.42763818712,653.017481158529,927.5,379.163522034968,629.371695378491,410.498069503264,567.045908301137,703.717843984329,0,0,0,4,0,0,0,NaN,vertical,vertical,vertical,vertical,vertical,none
1c,11,100147,2,6,70,20,F,NA,variable,homogeneous,6,present,1.1335620880127,1,horizontal,horizontal,1,0.976459503173828,red,5,6,610.498069503264,429.371695378491,557.480588344736,678.799333565612,746.982518841471,849.42763818712,989.501930496736,770.628304621509,1042.51941165526,521.200666434388,853.017481158529,350.57236181288,610.498069503264,429.371695378491,557.480588344736,678.799333565612,0,0,0,0,4,0,vertical,horizontal,vertical,horizontal,horizontal,vertical
1c,11,100147,2,7,71,20,F,NA,variable,homogeneous,6,present,0.848384857177734,1,horizontal,horizontal,1,0.999988222122192,green,2,4,1011.40458100154,742.594190385041,817.787900804752,345.621167183745,782.212099195248,854.378832816255,1011.40458100154,742.594190385041,1029.19248180629,488.215357568785,817.787900804752,345.621167183745,588.595418998464,457.40580961496,570.807518193712,711.784642431215,0,4,0,0,0,0,horizontal,horizontal,vertical,vertical,vertical,vertical
1c,11,100147,2,8,72,20,F,NA,variable,homogeneous,5,present,0.768769979476929,1,vertical,vertical,1,0.964695143699646,red,1,4,712.784863451954,839.621618300407,729.712474266665,354.878267535729,712.784863451954,839.621618300407,1000.94274216971,756.993676208043,1011.40458100154,457.40580961496,729.712474266665,354.878267535729,545.155339110131,591.100628340862,0,0,4,0,0,0,0,NaN,vertical,vertical,horizontal,horizontal,horizontal,none
1c,11,100147,2,9,73,20,F,NA,variable,homogeneous,3,absent,1.04455995559692,1,horizontal,horizontal,1,0.611764359474182,green,3,NaN,553.688914296288,534.001143498857,NaN,NaN,865.998856501143,846.311085703712,980.31222920257,419.68777079743,553.688914296288,534.001143498857,0,0,0,0,0,0,0,0,4,NaN,NaN,NaN,horizontal,vertical,horizontal,none,none,none
1c,11,100147,2,10,74,20,F,NA,variable,homogeneous,3,present,0.597662925720215,1,horizontal,horizontal,1,0.999988222122192,green,2,1,1045.12173246427,529.712474266665,738.309916622085,847.425410200379,738.309916622085,847.425410200379,1045.12173246427,529.712474266665,616.568350913644,422.862115532956,0,0,0,0,0,0,0,4,0,NaN,NaN,NaN,horizontal,horizontal,horizontal,none,none,none
1c,11,100147,2,11,75,20,F,NA,variable,homogeneous,5,present,0.836101055145264,1,horizontal,horizontal,1,0.729407954216003,green,3,1,844.280285305067,348.874022981887,911.784642431215,829.192481806288,911.784642431215,829.192481806288,1052.5183575291,564.510859255183,844.280285305067,348.874022981887,574.848363820974,480.284751489598,616.568350913644,777.137884467044,0,0,0,0,4,0,0,NaN,horizontal,vertical,horizontal,vertical,horizontal,none
1c,11,100147,2,12,76,20,F,NA,variable,homogeneous,5,absent,0.649407148361206,1,vertical,vertical,1,0.811758470535278,red,2,NaN,1052.5183575291,635.489140744817,NaN,NaN,844.280285305067,851.125977018113,1052.5183575291,635.489140744817,911.784642431215,370.807518193712,616.568350913644,422.862115532956,574.848363820974,719.715248510402,0,0,0,4,0,0,0,NaN,horizontal,vertical,horizontal,horizontal,horizontal,none
1c,11,100147,2,13,77,20,F,NA,variable,homogeneous,4,absent,0.92599892616272,1,horizontal,horizontal,1,0.952930784225464,red,3,NaN,636.089159529932,404.658667004661,NaN,NaN,963.910840470068,795.341332995339,995.341332995339,436.089159529932,636.089159529932,404.658667004661,604.658667004661,763.910840470068,0,0,0,0,0,0,4,0,NaN,NaN,horizontal,vertical,horizontal,vertical,none,none
1c,11,100147,2,14,78,20,F,NA,variable,homogeneous,4,present,1.02963185310364,1,horizontal,horizontal,1,0.870580267906189,green,1,4,657.405809614959,811.404581001536,588.595418998464,457.40580961496,657.405809614959,811.404581001536,1011.40458100154,742.594190385041,942.594190385041,388.595418998464,588.595418998464,457.40580961496,0,0,0,0,4,0,0,0,NaN,NaN,horizontal,vertical,vertical,vertical,none,none
1c,11,100147,2,15,79,20,F,NA,variable,homogeneous,3,absent,0.674848079681396,1,vertical,vertical,1,0.82352283000946,red,2,NaN,960.476699717708,401.827779828472,NaN,NaN,891.383827134052,838.063008756786,960.476699717708,401.827779828472,548.13947314824,560.109211414741,0,0,0,0,0,0,0,4,0,NaN,NaN,NaN,horizontal,vertical,vertical,none,none,none
1c,11,100147,2,16,80,20,F,NA,variable,homogeneous,4,absent,0.659385919570923,1,horizontal,horizontal,1,0.741172313690186,green,2,NaN,1053.60308331891,573.345241866748,NaN,NaN,826.654758133252,853.60308331891,1053.60308331891,573.345241866748,773.345241866748,346.39691668109,546.39691668109,626.654758133252,0,0,0,0,0,4,0,0,NaN,NaN,vertical,horizontal,vertical,horizontal,none,none
1c,11,100147,2,17,81,20,F,NA,variable,homogeneous,4,absent,0.620887994766235,1,horizontal,horizontal,1,0.999988222122192,red,4,NaN,610.498069503264,770.628304621509,NaN,NaN,970.628304621509,789.501930496736,989.501930496736,429.371695378491,629.371695378491,410.498069503264,610.498069503264,770.628304621509,0,0,0,0,0,0,0,4,NaN,NaN,horizontal,horizontal,vertical,horizontal,none,none
1c,11,100147,2,18,82,20,F,NA,variable,homogeneous,4,absent,0.709375858306885,0,vertical,horizontal,1,0.999988222122192,green,3,NaN,800,345,NaN,NaN,800,855,1055,600,800,345,545,600,0,0,0,0,0,0,4,0,NaN,NaN,horizontal,horizontal,vertical,vertical,none,none
1c,11,100147,2,19,83,20,F,NA,variable,homogeneous,3,present,0.76970100402832,1,horizontal,horizontal,1,1.09410309791565,red,1,2,632.704947607421,792.450942956807,1050.31493177915,648.656293821019,632.704947607421,792.450942956807,1050.31493177915,648.656293821019,716.980120613425,358.892763222174,0,0,0,0,0,0,4,0,0,NaN,NaN,NaN,horizontal,horizontal,horizontal,none,none,none
1c,11,100147,2,20,84,20,F,NA,variable,homogeneous,4,present,1.15606999397278,1,horizontal,horizontal,1,0.741172313690186,green,3,2,764.510859255183,347.4816424709,1052.5183575291,564.510859255183,835.489140744817,852.518357529101,1052.5183575291,564.510859255183,764.510859255183,347.4816424709,547.481642470899,635.489140744817,0,0,0,0,0,0,4,0,NaN,NaN,horizontal,vertical,horizontal,vertical,none,none
1c,11,100147,2,21,85,20,F,NA,variable,homogeneous,5,absent,0.605062007904053,1,vertical,vertical,1,1.08233873844147,green,3,NaN,817.787900804752,345.621167183745,NaN,NaN,935.129412379467,816.252264519889,1047.42541020038,538.309916622085,817.787900804752,345.621167183745,563.568117085469,504.475318678942,636.089159529932,795.341332995339,0,0,0,0,4,0,0,NaN,horizontal,horizontal,vertical,horizontal,horizontal,none
1c,11,100147,2,22,86,20,F,NA,variable,homogeneous,5,absent,0.702633142471313,1,vertical,vertical,1,0.682350516319275,red,2,NaN,1049.42763818712,653.017481158529,NaN,NaN,826.654758133252,853.60308331891,1049.42763818712,653.017481158529,927.5,379.163522034968,629.371695378491,410.498069503264,567.045908301137,703.717843984329,0,0,0,4,0,0,0,NaN,vertical,vertical,horizontal,horizontal,vertical,none
1c,11,100147,2,23,87,20,F,NA,variable,homogeneous,3,present,1.661700963974,1,vertical,vertical,1,0.623528718948364,green,2,1,973.909581815937,413.504806087112,874.554784704298,843.857712770574,874.554784704298,843.857712770574,973.909581815937,413.504806087112,551.535633479765,542.637481142314,0,0,0,0,0,0,0,4,0,NaN,NaN,NaN,vertical,vertical,vertical,none,none,none
1c,11,100147,2,24,88,20,F,NA,variable,homogeneous,5,present,1.49697017669678,1,horizontal,horizontal,1,0.894108986854553,green,2,5,1032.95409169886,703.717843984329,550.57236181288,653.017481158529,773.345241866748,853.60308331891,1032.95409169886,703.717843984329,970.628304621509,410.498069503264,672.5,379.163522034968,550.57236181288,653.017481158529,0,0,0,4,0,0,0,NaN,vertical,horizontal,vertical,horizontal,horizontal,none
1c,11,100147,2,25,89,20,F,NA,variable,homogeneous,4,absent,0.637065887451172,1,vertical,vertical,1,1.08233873844147,green,3,NaN,956.993676208043,399.057257830286,NaN,NaN,643.006323791957,800.942742169714,1000.94274216971,756.993676208043,956.993676208043,399.057257830286,599.057257830286,443.006323791957,0,0,0,0,0,0,4,0,NaN,NaN,vertical,horizontal,vertical,horizontal,none,none
1c,11,100147,2,26,90,20,F,NA,variable,homogeneous,6,present,1.1948709487915,1,vertical,vertical,1,0.858815908432007,red,6,4,629.371695378491,789.501930496736,721.200666434388,357.480588344736,878.799333565612,842.519411655264,1049.42763818712,653.017481158529,970.628304621509,410.498069503264,721.200666434388,357.480588344736,550.57236181288,546.982518841471,629.371695378491,789.501930496736,0,0,0,0,0,4,horizontal,vertical,vertical,vertical,horizontal,vertical
1c,11,100147,2,27,91,20,F,NA,variable,homogeneous,5,present,0.848550081253052,1,horizontal,horizontal,1,1.08233873844147,red,4,3,576.971974679454,476.373546837184,848.656293821019,349.685068220846,907.767656743878,831.108485694346,1053.09926866854,568.923317431687,848.656293821019,349.685068220846,576.971974679454,476.373546837184,613.504806087112,773.909581815937,0,0,0,0,0,4,0,NaN,horizontal,horizontal,vertical,horizontal,vertical,none
1c,11,100147,2,28,92,20,F,NA,variable,homogeneous,3,present,1.03806400299072,1,horizontal,horizontal,1,0.999988222122192,red,3,2,692.232343256122,368.891514305654,1054.0296480134,622.224714400653,653.738008730483,808.883771293693,1054.0296480134,622.224714400653,692.232343256122,368.891514305654,0,0,0,0,0,0,0,0,4,NaN,NaN,NaN,horizontal,horizontal,horizontal,none,none,none
1c,11,100147,2,29,93,20,F,NA,variable,homogeneous,4,absent,0.642753124237061,1,vertical,vertical,1,0.788229751586914,red,3,NaN,768.923317431687,346.900731331463,NaN,NaN,831.076682568313,853.099268668537,1053.09926866854,568.923317431687,768.923317431687,346.900731331463,546.900731331463,631.076682568313,0,0,0,0,0,0,4,0,NaN,NaN,horizontal,vertical,vertical,horizontal,none,none
1c,11,100147,2,30,94,20,F,NA,variable,homogeneous,3,present,0.917513132095337,1,vertical,vertical,1,1.09410309791565,green,1,3,619.68777079743,780.31222920257,734.001143498857,353.688914296288,619.68777079743,780.31222920257,1046.31108570371,665.998856501143,734.001143498857,353.688914296288,0,0,0,0,0,0,4,0,0,NaN,NaN,NaN,vertical,vertical,horizontal,none,none,none
1c,11,100147,2,31,95,20,F,NA,variable,homogeneous,6,absent,0.689418792724609,1,vertical,vertical,1,1.0588100194931,red,3,NaN,1050.31493177915,551.343706178981,NaN,NaN,716.980120613425,841.107236777826,967.295052392579,792.450942956807,1050.31493177915,551.343706178981,883.019879386575,358.892763222174,632.704947607421,407.549057043193,549.685068220846,648.656293821019,0,0,4,0,0,0,horizontal,horizontal,vertical,horizontal,vertical,vertical
1c,11,100147,2,32,96,20,F,NA,variable,homogeneous,3,absent,0.725219011306763,1,vertical,vertical,1,1.09410309791565,red,1,NaN,895.524681321058,836.431882914531,NaN,NaN,895.524681321058,836.431882914531,956.993676208043,399.057257830286,547.481642470899,564.510859255183,0,0,0,0,0,0,4,0,0,NaN,NaN,NaN,vertical,horizontal,vertical,none,none,none
1c,11,100147,2,33,97,20,F,NA,variable,homogeneous,3,absent,0.701143026351929,1,vertical,vertical,1,0.670586156845093,green,1,NaN,601.827779828472,760.476699717708,NaN,NaN,601.827779828472,760.476699717708,1038.06300875679,691.383827134052,760.109211414741,348.13947314824,0,0,0,0,0,0,4,0,0,NaN,NaN,NaN,vertical,horizontal,horizontal,none,none,none
1c,11,100147,2,34,98,20,F,NA,variable,homogeneous,4,present,1.14961695671082,1,horizontal,horizontal,1,0.717643594741821,red,2,3,1000.94274216971,443.006323791957,643.006323791957,399.057257830286,956.993676208043,800.942742169714,1000.94274216971,443.006323791957,643.006323791957,399.057257830286,599.057257830286,756.993676208043,0,0,0,0,0,4,0,0,NaN,NaN,vertical,horizontal,vertical,horizontal,none,none
1c,11,100147,2,35,99,20,F,NA,variable,homogeneous,6,present,1.09637498855591,1,horizontal,horizontal,1,0.788229751586914,green,1,4,822.224714400653,854.029648013395,777.775285599347,345.970351986605,822.224714400653,854.029648013395,1031.10848569435,707.767656743878,1008.88377129369,453.738008730483,777.775285599347,345.970351986605,568.891514305654,492.232343256122,591.116228706307,746.261991269517,4,0,0,0,0,0,horizontal,vertical,horizontal,vertical,vertical,horizontal
1c,11,100147,2,36,100,20,F,NA,variable,homogeneous,3,absent,0.679134130477905,1,vertical,vertical,1,1.02351694107056,green,1,NaN,953.462830903772,803.65205506206,NaN,NaN,953.462830903772,803.65205506206,899.636437764765,365.271262369628,546.900731331463,631.076682568313,0,0,0,0,0,0,4,0,0,NaN,NaN,NaN,vertical,vertical,horizontal,none,none,none
1c,11,100147,2,37,101,20,F,NA,variable,homogeneous,5,present,0.888674020767212,1,vertical,vertical,1,1.01175258159637,green,3,5,800,345,650.114760665419,806.299333565612,949.885239334581,806.299333565612,1042.51941165526,521.200666434388,800,345,557.480588344736,521.200666434388,650.114760665419,806.299333565612,0,0,0,0,4,0,0,NaN,horizontal,vertical,vertical,horizontal,horizontal,none
1c,11,100147,2,38,102,20,F,NA,variable,homogeneous,6,absent,0.629197835922241,1,horizontal,horizontal,1,1.09410309791565,red,1,NaN,911.784642431215,829.192481806288,NaN,NaN,911.784642431215,829.192481806288,1054.37883281626,617.787900804752,942.594190385041,388.595418998464,688.215357568785,370.807518193712,545.621167183745,582.212099195248,657.405809614959,811.404581001536,4,0,0,0,0,0,horizontal,horizontal,vertical,vertical,vertical,horizontal
1c,11,100147,2,39,103,20,F,NA,variable,homogeneous,6,present,1.40071201324463,1,vertical,vertical,1,0.752936673164368,green,4,6,878.799333565612,357.480588344736,550.57236181288,653.017481158529,721.200666434388,842.519411655264,970.628304621509,789.501930496736,1049.42763818712,546.982518841471,878.799333565612,357.480588344736,629.371695378491,410.498069503264,550.57236181288,653.017481158529,0,0,0,4,0,0,vertical,vertical,vertical,vertical,horizontal,vertical
1c,11,100147,2,40,104,20,F,NA,variable,homogeneous,6,absent,0.990782022476196,1,vertical,vertical,1,1.09410309791565,red,6,NaN,546.900731331463,631.076682568313,NaN,NaN,700.363562235235,834.728737630372,953.462830903772,803.65205506206,1053.09926866854,568.923317431687,899.636437764765,365.271262369628,646.537169096228,396.34794493794,546.900731331463,631.076682568313,0,0,0,0,0,4,horizontal,horizontal,vertical,horizontal,horizontal,vertical
1c,11,100147,2,41,105,20,F,NA,variable,homogeneous,4,present,0.778301000595093,1,vertical,vertical,1,0.76470103263855,green,2,3,1045.12173246427,670.287525733335,870.287525733335,354.878267535729,729.712474266665,845.121732464271,1045.12173246427,670.287525733335,870.287525733335,354.878267535729,554.878267535729,529.712474266665,0,0,0,0,0,4,0,0,NaN,NaN,horizontal,vertical,horizontal,vertical,none,none
1c,11,100147,2,42,106,20,F,NA,variable,homogeneous,3,absent,0.595705032348633,1,horizontal,horizontal,1,0.882344627380371,red,1,NaN,977.137884467044,783.431649086356,NaN,NaN,977.137884467044,783.431649086356,870.287525733335,354.878267535729,552.574589799621,661.690083377915,0,0,0,0,0,0,4,0,0,NaN,NaN,NaN,horizontal,vertical,vertical,none,none,none
1c,11,100147,2,43,107,20,F,NA,variable,homogeneous,4,present,0.881017923355103,1,vertical,vertical,1,0.858815908432007,red,4,1,565.271262369628,500.363562235235,700.363562235235,834.728737630372,700.363562235235,834.728737630372,1034.72873763037,699.636437764765,899.636437764765,365.271262369628,565.271262369628,500.363562235235,0,0,0,0,0,0,0,4,NaN,NaN,vertical,vertical,vertical,vertical,none,none
1c,11,100147,2,44,108,20,F,NA,variable,homogeneous,3,absent,0.647463083267212,1,horizontal,horizontal,1,1.03528130054474,green,3,NaN,583.747735480111,464.870587620533,NaN,NaN,791.100628340862,854.844660889869,1025.15163617903,480.284751489598,583.747735480111,464.870587620533,0,0,0,0,0,0,0,0,4,NaN,NaN,NaN,horizontal,vertical,horizontal,none,none,none
1c,11,100147,2,45,109,20,F,NA,variable,homogeneous,3,present,0.695334911346436,1,vertical,vertical,1,0.717643594741821,red,3,1,613.504806087112,426.090418184063,742.637481142314,848.464366520235,742.637481142314,848.464366520235,1043.85771277057,525.445215295702,613.504806087112,426.090418184063,0,0,0,0,0,0,0,0,4,NaN,NaN,NaN,horizontal,horizontal,vertical,none,none,none
1c,11,100147,2,46,110,20,F,NA,variable,homogeneous,6,absent,1.08008885383606,1,horizontal,horizontal,1,0.941166424751282,green,3,NaN,1047.42541020038,538.309916622085,NaN,NaN,729.712474266665,845.121732464271,977.137884467044,783.431649086356,1047.42541020038,538.309916622085,870.287525733335,354.878267535729,622.862115532956,416.568350913644,552.574589799621,661.690083377915,0,0,4,0,0,0,horizontal,vertical,horizontal,horizontal,vertical,horizontal
1c,11,100147,2,47,111,20,F,NA,variable,homogeneous,4,present,0.708353042602539,1,vertical,vertical,1,0.729407954216003,green,4,1,610.498069503264,770.628304621509,970.628304621509,789.501930496736,970.628304621509,789.501930496736,989.501930496736,429.371695378491,629.371695378491,410.498069503264,610.498069503264,770.628304621509,0,0,0,0,0,0,0,4,NaN,NaN,vertical,horizontal,horizontal,vertical,none,none
1c,11,100147,2,48,112,20,F,NA,variable,homogeneous,6,absent,0.699934005737305,1,vertical,vertical,1,0.858815908432007,green,2,NaN,1053.60308331891,626.654758133252,NaN,NaN,903.717843984329,832.954091698863,1053.60308331891,626.654758133252,949.885239334581,393.700666434388,696.282156015671,367.045908301137,546.39691668109,573.345241866748,650.114760665419,806.299333565612,0,4,0,0,0,0,horizontal,vertical,vertical,horizontal,horizontal,vertical
1c,11,100147,2,49,113,20,F,NA,variable,homogeneous,4,present,0.79328179359436,1,vertical,vertical,1,0.752936673164368,red,4,2,552.574589799621,661.690083377915,1047.42541020038,538.309916622085,861.690083377915,847.425410200379,1047.42541020038,538.309916622085,738.309916622085,352.574589799621,552.574589799621,661.690083377915,0,0,0,0,0,0,0,4,NaN,NaN,vertical,vertical,vertical,vertical,none,none
1c,11,100147,2,50,114,20,F,NA,variable,homogeneous,6,present,0.730334043502808,1,horizontal,horizontal,1,1.07057437896729,red,4,5,919.715248510402,374.848363820974,664.870587620533,383.747735480111,680.284751489598,825.151636179026,935.129412379467,816.252264519889,1054.84466088987,591.100628340862,919.715248510402,374.848363820974,664.870587620533,383.747735480111,545.155339110131,608.899371659138,0,0,0,4,0,0,horizontal,horizontal,vertical,horizontal,vertical,horizontal
1c,11,100147,2,51,115,20,F,NA,variable,homogeneous,5,absent,0.548468112945557,1,horizontal,horizontal,1,0.752936673164368,red,1,NaN,907.767656743878,831.108485694346,NaN,NaN,907.767656743878,831.108485694346,1053.09926866854,568.923317431687,848.656293821019,349.685068220846,576.971974679454,476.373546837184,613.504806087112,773.909581815937,0,0,4,0,0,0,0,NaN,horizontal,vertical,horizontal,horizontal,horizontal,none
1c,11,100147,2,52,116,20,F,NA,variable,homogeneous,5,absent,0.509212970733643,1,horizontal,horizontal,1,1.07057437896729,red,3,NaN,942.594190385041,388.595418998464,NaN,NaN,808.899371659138,854.844660889869,1045.12173246427,670.287525733335,942.594190385041,388.595418998464,643.006323791957,399.057257830286,560.378381699593,687.215136548046,0,0,0,0,4,0,0,NaN,horizontal,vertical,horizontal,horizontal,vertical,none
1c,11,100147,2,53,117,20,F,NA,variable,homogeneous,4,present,0.472655057907104,1,horizontal,horizontal,1,1.07057437896729,red,2,3,1048.46436652023,542.637481142314,742.637481142314,351.535633479765,857.362518857686,848.464366520235,1048.46436652023,542.637481142314,742.637481142314,351.535633479765,551.535633479765,657.362518857686,0,0,0,0,0,4,0,0,NaN,NaN,horizontal,horizontal,horizontal,vertical,none,none
1c,11,100147,2,54,118,20,F,NA,variable,homogeneous,4,absent,0.508857011795044,1,horizontal,horizontal,1,0.905873346328735,green,2,NaN,1041.10723677783,516.980120613425,NaN,NaN,883.019879386575,841.107236777826,1041.10723677783,516.980120613425,716.980120613425,358.892763222174,558.892763222174,683.019879386575,0,0,0,0,0,4,0,0,NaN,NaN,horizontal,horizontal,horizontal,vertical,none,none
1c,11,100147,2,55,119,20,F,NA,variable,homogeneous,5,absent,1.03666114807129,1,horizontal,horizontal,1,1.08233873844147,green,3,NaN,826.654758133252,346.39691668109,NaN,NaN,927.5,820.836477965032,1049.42763818712,546.982518841471,826.654758133252,346.39691668109,567.045908301137,496.282156015671,629.371695378491,789.501930496736,0,0,0,0,4,0,0,NaN,vertical,vertical,horizontal,horizontal,horizontal,none
1c,11,100147,2,56,120,20,F,NA,variable,homogeneous,4,absent,1.39521408081055,1,vertical,vertical,1,0.882344627380371,red,3,NaN,911.784642431215,370.807518193712,NaN,NaN,688.215357568785,829.192481806288,1029.19248180629,711.784642431215,911.784642431215,370.807518193712,570.807518193712,488.215357568785,0,0,0,0,0,0,4,0,NaN,NaN,vertical,vertical,vertical,horizontal,none,none
1c,11,100147,2,57,121,20,F,NA,variable,homogeneous,3,present,0.760374069213867,0,horizontal,vertical,1,1.0588100194931,green,2,1,1049.42763818712,546.982518841471,721.200666434388,842.519411655264,721.200666434388,842.519411655264,1049.42763818712,546.982518841471,629.371695378491,410.498069503264,0,0,0,0,0,0,0,4,0,NaN,NaN,NaN,vertical,horizontal,horizontal,none,none,none
1c,11,100147,2,58,122,20,F,NA,variable,homogeneous,6,absent,0.796236038208008,0,vertical,horizontal,1,0.623528718948364,green,3,NaN,1047.42541020038,538.309916622085,NaN,NaN,729.712474266665,845.121732464271,977.137884467044,783.431649086356,1047.42541020038,538.309916622085,870.287525733335,354.878267535729,622.862115532956,416.568350913644,552.574589799621,661.690083377915,0,0,4,0,0,0,vertical,vertical,vertical,horizontal,vertical,vertical
1c,11,100147,2,59,123,20,F,NA,variable,homogeneous,5,absent,1.13349604606628,1,vertical,vertical,1,0.847051548957825,green,3,NaN,844.280285305067,348.874022981887,NaN,NaN,911.784642431215,829.192481806288,1052.5183575291,564.510859255183,844.280285305067,348.874022981887,574.848363820974,480.284751489598,616.568350913644,777.137884467044,0,0,0,0,4,0,0,NaN,horizontal,horizontal,vertical,horizontal,horizontal,none
1c,11,100147,2,60,124,20,F,NA,variable,homogeneous,5,present,0.853785991668701,1,horizontal,horizontal,1,0.882344627380371,red,4,5,607.549057043193,432.704947607421,581.422338320961,731.334709102064,857.362518857686,848.464366520235,1054.0296480134,622.224714400653,899.636437764765,365.271262369628,607.549057043193,432.704947607421,581.422338320961,731.334709102064,0,0,0,0,0,4,0,NaN,horizontal,vertical,vertical,horizontal,vertical,none
1c,11,100147,2,61,125,20,F,NA,variable,homogeneous,6,absent,0.850915193557739,1,horizontal,horizontal,1,0.999988222122192,green,1,NaN,708.616172865948,838.063008756786,NaN,NaN,708.616172865948,838.063008756786,960.476699717708,798.172220171528,1051.86052685176,560.109211414741,891.383827134052,361.936991243214,639.523300282292,401.827779828472,548.13947314824,639.890788585259,4,0,0,0,0,0,horizontal,horizontal,horizontal,horizontal,horizontal,vertical
1c,11,100147,2,62,126,20,F,NA,variable,homogeneous,5,absent,1.71290898323059,1,horizontal,horizontal,1,0.647057437896729,green,2,NaN,998.172220171528,760.476699717708,NaN,NaN,708.616172865948,838.063008756786,998.172220171528,760.476699717708,1013.86099482608,461.117046071168,734.001143498857,353.688914296288,545.349468637584,586.654331158049,0,0,0,4,0,0,0,NaN,vertical,horizontal,horizontal,horizontal,vertical,none
1c,11,100147,2,63,127,20,F,NA,variable,homogeneous,6,absent,0.667609930038452,1,horizontal,horizontal,1,0.799994111061096,red,6,NaN,643.006323791957,800.942742169714,NaN,NaN,895.524681321058,836.431882914531,1052.5183575291,635.489140744817,956.993676208043,399.057257830286,704.475318678942,363.568117085469,547.481642470899,564.510859255183,643.006323791957,800.942742169714,0,0,0,0,0,4,vertical,vertical,vertical,vertical,horizontal,horizontal
1c,11,100147,2,64,128,20,F,NA,variable,homogeneous,3,absent,0.885091066360474,1,horizontal,horizontal,1,0.6,red,2,NaN,1045.12173246427,529.712474266665,NaN,NaN,738.309916622085,847.425410200379,1045.12173246427,529.712474266665,616.568350913644,422.862115532956,0,0,0,0,0,0,0,4,0,NaN,NaN,NaN,horizontal,horizontal,vertical,none,none,none
1c,11,100147,3,1,129,20,F,NA,variable,homogeneous,4,absent,0.90985894203186,1,vertical,vertical,1,0.717643594741821,green,3,NaN,664.870587620533,383.747735480111,NaN,NaN,935.129412379467,816.252264519889,1016.25226451989,464.870587620533,664.870587620533,383.747735480111,583.747735480111,735.129412379467,0,0,0,0,0,0,4,0,NaN,NaN,vertical,vertical,vertical,vertical,none,none
1c,11,100147,3,2,130,20,F,NA,variable,homogeneous,3,present,0.699651002883911,1,horizontal,horizontal,1,0.76470103263855,red,2,3,1034.72873763037,500.363562235235,596.34794493794,446.537169096228,768.923317431687,853.099268668537,1034.72873763037,500.363562235235,596.34794493794,446.537169096228,0,0,0,0,0,0,0,4,0,NaN,NaN,NaN,vertical,horizontal,horizontal,none,none,none
1c,11,100147,3,3,131,20,F,NA,variable,homogeneous,5,present,1.03992414474487,0,horizontal,vertical,1,0.905873346328735,green,4,5,574.848363820974,480.284751489598,616.568350913644,777.137884467044,911.784642431215,829.192481806288,1052.5183575291,564.510859255183,844.280285305067,348.874022981887,574.848363820974,480.284751489598,616.568350913644,777.137884467044,0,0,0,0,0,4,0,NaN,horizontal,horizontal,horizontal,horizontal,vertical,none
1c,11,100147,3,4,132,20,F,NA,variable,homogeneous,5,absent,0.902040004730225,1,vertical,vertical,1,0.658821797370911,green,3,NaN,911.784642431215,370.807518193712,NaN,NaN,844.280285305067,851.125977018113,1052.5183575291,635.489140744817,911.784642431215,370.807518193712,616.568350913644,422.862115532956,574.848363820974,719.715248510402,0,0,0,0,4,0,0,NaN,horizontal,vertical,vertical,vertical,vertical,none
1c,11,100147,3,5,133,20,F,NA,variable,homogeneous,4,absent,1.111407995224,1,horizontal,horizontal,1,0.964695143699646,green,2,NaN,983.431649086356,777.137884467044,NaN,NaN,622.862115532956,783.431649086356,983.431649086356,777.137884467044,977.137884467044,416.568350913644,616.568350913644,422.862115532956,0,0,0,0,0,4,0,0,NaN,NaN,vertical,horizontal,horizontal,vertical,none,none
1c,11,100147,3,6,134,20,F,NA,variable,homogeneous,6,absent,1.10767292976379,1,vertical,vertical,1,1.09410309791565,red,6,NaN,547.481642470899,635.489140744817,NaN,NaN,704.475318678942,836.431882914531,956.993676208043,800.942742169714,1052.5183575291,564.510859255183,895.524681321058,363.568117085469,643.006323791957,399.057257830286,547.481642470899,635.489140744817,0,0,0,0,0,4,vertical,vertical,horizontal,vertical,horizontal,vertical
1c,11,100147,3,7,135,20,F,NA,variable,homogeneous,6,present,1.06824493408203,1,vertical,vertical,1,0.905873346328735,green,3,4,1011.40458100154,457.40580961496,782.212099195248,345.621167183745,817.787900804752,854.378832816255,1029.19248180629,711.784642431215,1011.40458100154,457.40580961496,782.212099195248,345.621167183745,570.807518193712,488.215357568785,588.595418998464,742.594190385041,0,0,4,0,0,0,horizontal,horizontal,vertical,horizontal,horizontal,horizontal
1c,11,100147,3,8,136,20,F,NA,variable,homogeneous,5,present,1.18798303604126,1,vertical,vertical,1,0.905873346328735,green,4,5,629.371695378491,410.498069503264,567.045908301137,703.717843984329,826.654758133252,853.60308331891,1049.42763818712,653.017481158529,927.5,379.163522034968,629.371695378491,410.498069503264,567.045908301137,703.717843984329,0,0,0,0,0,4,0,NaN,vertical,vertical,horizontal,vertical,vertical,none
1c,11,100147,3,9,137,20,F,NA,variable,homogeneous,5,absent,0.817701816558838,1,horizontal,horizontal,1,0.882344627380371,red,1,NaN,657.405809614959,811.404581001536,NaN,NaN,657.405809614959,811.404581001536,956.993676208043,800.942742169714,1039.62161830041,512.784863451954,791.100628340862,345.155339110131,554.878267535729,529.712474266665,0,0,4,0,0,0,0,NaN,horizontal,horizontal,vertical,vertical,vertical,none
1c,11,100147,3,10,138,20,F,NA,variable,homogeneous,5,absent,0.864200115203857,1,vertical,vertical,1,0.905873346328735,green,1,NaN,755.719714694933,851.125977018113,NaN,NaN,755.719714694933,851.125977018113,1025.15163617903,719.715248510402,983.431649086356,422.862115532956,688.215357568785,370.807518193712,547.481642470899,635.489140744817,0,0,4,0,0,0,0,NaN,vertical,vertical,vertical,vertical,horizontal,none
1c,11,100147,3,11,139,20,F,NA,variable,homogeneous,4,present,0.909497976303101,1,vertical,vertical,1,0.98822386264801,red,1,3,729.712474266665,845.121732464271,870.287525733335,354.878267535729,729.712474266665,845.121732464271,1045.12173246427,670.287525733335,870.287525733335,354.878267535729,554.878267535729,529.712474266665,0,0,0,0,4,0,0,0,NaN,NaN,vertical,horizontal,horizontal,horizontal,none,none
1c,11,100147,3,12,140,20,F,NA,variable,homogeneous,6,absent,0.794178009033203,1,horizontal,horizontal,1,0.717643594741821,red,4,NaN,903.717843984329,367.045908301137,NaN,NaN,696.282156015671,832.954091698863,949.885239334581,806.299333565612,1053.60308331891,573.345241866748,903.717843984329,367.045908301137,650.114760665419,393.700666434388,546.39691668109,626.654758133252,0,0,0,4,0,0,vertical,horizontal,horizontal,horizontal,vertical,vertical
1c,11,100147,3,13,141,20,F,NA,variable,homogeneous,5,absent,1.67241597175598,1,horizontal,horizontal,1,0.705879235267639,green,5,NaN,551.535633479765,542.637481142314,NaN,NaN,668.665290897936,818.577661679039,967.295052392579,792.450942956807,1034.72873763037,500.363562235235,777.775285599347,345.970351986605,551.535633479765,542.637481142314,0,0,0,0,0,0,4,NaN,horizontal,horizontal,horizontal,horizontal,horizontal,none
1c,11,100147,3,14,142,20,F,NA,variable,homogeneous,6,absent,1.07102012634277,1,horizontal,horizontal,1,0.647057437896729,green,5,NaN,593.700666434388,450.114760665419,NaN,NaN,773.345241866748,853.60308331891,1006.29933356561,749.885239334581,1032.95409169886,496.282156015671,826.654758133252,346.39691668109,593.700666434388,450.114760665419,567.045908301137,703.717843984329,0,0,0,0,4,0,horizontal,horizontal,horizontal,vertical,horizontal,horizontal
1c,11,100147,3,15,143,20,F,NA,variable,homogeneous,4,present,0.854995012283325,1,vertical,vertical,1,0.717643594741821,green,4,1,596.34794493794,446.537169096228,646.537169096228,803.65205506206,646.537169096228,803.65205506206,1003.65205506206,753.462830903772,953.462830903772,396.34794493794,596.34794493794,446.537169096228,0,0,0,0,0,0,0,4,NaN,NaN,vertical,vertical,horizontal,vertical,none,none
1c,11,100147,3,16,144,20,F,NA,variable,homogeneous,4,absent,0.740710973739624,1,horizontal,horizontal,1,0.82352283000946,green,4,NaN,548.874022981887,555.719714694933,NaN,NaN,755.719714694933,851.125977018113,1051.12597701811,644.280285305067,844.280285305067,348.874022981887,548.874022981887,555.719714694933,0,0,0,0,0,0,0,4,NaN,NaN,vertical,horizontal,vertical,horizontal,none,none
1c,11,100147,3,17,145,20,F,NA,variable,homogeneous,3,present,1.23338603973389,1,horizontal,horizontal,1,0.882344627380371,green,3,2,777.775285599347,345.970351986605,1031.10848569435,707.767656743878,591.116228706307,746.261991269517,1031.10848569435,707.767656743878,777.775285599347,345.970351986605,0,0,0,0,0,0,0,0,4,NaN,NaN,NaN,vertical,horizontal,horizontal,none,none,none
1c,11,100147,3,18,146,20,F,NA,variable,homogeneous,4,present,0.607982873916626,1,vertical,vertical,1,0.894108986854553,green,2,1,1054.84466088987,608.899371659138,791.100628340862,854.844660889869,791.100628340862,854.844660889869,1054.84466088987,608.899371659138,808.899371659138,345.155339110131,545.155339110131,591.100628340862,0,0,0,0,0,4,0,0,NaN,NaN,vertical,vertical,horizontal,vertical,none,none
1c,11,100147,3,19,147,20,F,NA,variable,homogeneous,6,present,0.82141900062561,1,horizontal,horizontal,1,1.04704566001892,red,4,2,848.656293821019,349.685068220846,992.450942956807,767.295052392579,751.343706178981,850.314931779154,992.450942956807,767.295052392579,1041.10723677783,516.980120613425,848.656293821019,349.685068220846,607.549057043193,432.704947607421,558.892763222174,683.019879386575,0,0,0,4,0,0,horizontal,horizontal,horizontal,horizontal,horizontal,horizontal
1c,11,100147,3,20,148,20,F,NA,variable,homogeneous,5,present,0.897274017333984,1,horizontal,horizontal,1,0.76470103263855,green,2,1,998.172220171528,760.476699717708,708.616172865948,838.063008756786,708.616172865948,838.063008756786,998.172220171528,760.476699717708,1013.86099482608,461.117046071168,734.001143498857,353.688914296288,545.349468637584,586.654331158049,0,0,0,4,0,0,0,NaN,vertical,horizontal,vertical,horizontal,horizontal,none
1c,11,100147,3,21,149,20,F,NA,variable,homogeneous,4,present,0.999413967132568,1,horizontal,horizontal,1,0.799994111061096,green,4,1,616.568350913644,777.137884467044,977.137884467044,783.431649086356,977.137884467044,783.431649086356,983.431649086356,422.862115532956,622.862115532956,416.568350913644,616.568350913644,777.137884467044,0,0,0,0,0,0,0,4,NaN,NaN,vertical,vertical,horizontal,horizontal,none,none
1c,11,100147,3,22,150,20,F,NA,variable,homogeneous,6,absent,0.888765096664429,1,vertical,vertical,1,0.858815908432007,green,2,NaN,980.31222920257,780.31222920257,NaN,NaN,734.001143498857,846.311085703712,980.31222920257,780.31222920257,1046.31108570371,534.001143498857,865.998856501143,353.688914296288,619.68777079743,419.68777079743,553.688914296288,665.998856501143,0,4,0,0,0,0,horizontal,vertical,horizontal,vertical,horizontal,vertical
1c,11,100147,3,23,151,20,F,NA,variable,homogeneous,3,present,1.48163890838623,1,vertical,vertical,1,0.752936673164368,green,2,1,1054.0296480134,622.224714400653,653.738008730483,808.883771293693,653.738008730483,808.883771293693,1054.0296480134,622.224714400653,692.232343256122,368.891514305654,0,0,0,0,0,0,0,4,0,NaN,NaN,NaN,horizontal,vertical,vertical,none,none,none
1c,11,100147,3,24,152,20,F,NA,variable,homogeneous,5,present,0.757284164428711,1,vertical,vertical,1,1.07057437896729,green,5,2,610.498069503264,770.628304621509,1053.60308331891,573.345241866748,903.717843984329,832.954091698863,1053.60308331891,573.345241866748,853.017481158529,350.57236181288,579.163522034968,472.5,610.498069503264,770.628304621509,0,0,0,0,0,0,4,NaN,horizontal,vertical,vertical,horizontal,vertical,none
1c,11,100147,3,25,153,20,F,NA,variable,homogeneous,5,absent,0.53507399559021,1,vertical,vertical,1,0.9294020652771,red,5,NaN,622.862115532956,783.431649086356,NaN,NaN,919.715248510402,825.151636179026,1051.12597701811,555.719714694933,835.489140744817,347.4816424709,570.807518193712,488.215357568785,622.862115532956,783.431649086356,0,0,0,0,0,0,4,NaN,horizontal,vertical,vertical,horizontal,vertical,none
1c,11,100147,3,26,154,20,F,NA,variable,homogeneous,3,present,0.490551948547363,1,vertical,vertical,1,0.623528718948364,red,3,1,572.793336331966,715.767577433584,1013.86099482608,738.882953928832,1013.86099482608,738.882953928832,813.345668841951,345.349468637584,572.793336331966,715.767577433584,0,0,0,0,0,0,0,0,4,NaN,NaN,NaN,horizontal,vertical,vertical,none,none,none
1c,11,100147,3,27,155,20,F,NA,variable,homogeneous,6,present,1.20236015319824,1,vertical,vertical,1,0.905873346328735,red,1,2,911.784642431215,829.192481806288,1054.37883281626,617.787900804752,911.784642431215,829.192481806288,1054.37883281626,617.787900804752,942.594190385041,388.595418998464,688.215357568785,370.807518193712,545.621167183745,582.212099195248,657.405809614959,811.404581001536,4,0,0,0,0,0,vertical,horizontal,vertical,vertical,horizontal,horizontal
1c,11,100147,3,28,156,20,F,NA,variable,homogeneous,5,present,0.942655086517334,1,vertical,vertical,1,0.999988222122192,red,4,1,616.568350913644,422.862115532956,844.280285305067,851.125977018113,844.280285305067,851.125977018113,1052.5183575291,635.489140744817,911.784642431215,370.807518193712,616.568350913644,422.862115532956,574.848363820974,719.715248510402,0,0,0,0,0,4,0,NaN,vertical,vertical,vertical,vertical,vertical,none
1c,11,100147,3,29,157,20,F,NA,variable,homogeneous,4,absent,0.767342090606689,1,horizontal,horizontal,1,0.870580267906189,red,4,NaN,591.116228706307,746.261991269517,NaN,NaN,946.261991269517,808.883771293693,1008.88377129369,453.738008730483,653.738008730483,391.116228706307,591.116228706307,746.261991269517,0,0,0,0,0,0,0,4,NaN,NaN,horizontal,horizontal,vertical,horizontal,none,none
1c,11,100147,3,30,158,20,F,NA,variable,homogeneous,5,present,0.982270002365112,1,horizontal,horizontal,1,0.976459503173828,red,2,4,1036.43188291453,695.524681321058,664.870587620533,383.747735480111,782.212099195248,854.378832816255,1036.43188291453,695.524681321058,963.910840470068,404.658667004661,664.870587620533,383.747735480111,552.574589799621,661.690083377915,0,0,0,4,0,0,0,NaN,horizontal,horizontal,horizontal,horizontal,vertical,none
1c,11,100147,3,31,159,20,F,NA,variable,homogeneous,4,absent,0.67924690246582,1,vertical,vertical,1,1.0588100194931,red,3,NaN,716.980120613425,358.892763222174,NaN,NaN,883.019879386575,841.107236777826,1041.10723677783,516.980120613425,716.980120613425,358.892763222174,558.892763222174,683.019879386575,0,0,0,0,0,0,4,0,NaN,NaN,vertical,horizontal,vertical,horizontal,none,none
1c,11,100147,3,32,160,20,F,NA,variable,homogeneous,5,present,0.676116943359375,1,horizontal,horizontal,1,0.952930784225464,red,1,2,782.212099195248,854.378832816255,1036.43188291453,695.524681321058,782.212099195248,854.378832816255,1036.43188291453,695.524681321058,963.910840470068,404.658667004661,664.870587620533,383.747735480111,552.574589799621,661.690083377915,0,0,4,0,0,0,0,NaN,horizontal,vertical,vertical,horizontal,horizontal,none
1c,11,100147,3,33,161,20,F,NA,variable,homogeneous,6,present,0.977291107177734,1,horizontal,horizontal,1,0.776465392112732,green,2,4,986.495193912888,773.909581815937,857.362518857686,351.535633479765,742.637481142314,848.464366520235,986.495193912888,773.909581815937,1043.85771277057,525.445215295702,857.362518857686,351.535633479765,613.504806087112,426.090418184063,556.142287229426,674.554784704298,0,4,0,0,0,0,horizontal,horizontal,vertical,horizontal,vertical,vertical
1c,11,100147,3,34,162,20,F,NA,variable,homogeneous,3,absent,0.662270784378052,1,vertical,vertical,1,1.07057437896729,green,1,NaN,986.495193912888,773.909581815937,NaN,NaN,986.495193912888,773.909581815937,857.362518857686,351.535633479765,556.142287229426,674.554784704298,0,0,0,0,0,0,4,0,0,NaN,NaN,NaN,vertical,vertical,horizontal,none,none,none
1c,11,100147,3,35,163,20,F,NA,variable,homogeneous,4,present,0.594732999801636,1,vertical,vertical,1,0.741172313690186,red,1,4,980.31222920257,780.31222920257,619.68777079743,780.31222920257,980.31222920257,780.31222920257,980.31222920257,419.68777079743,619.68777079743,419.68777079743,619.68777079743,780.31222920257,0,0,0,0,4,0,0,0,NaN,NaN,vertical,vertical,vertical,vertical,none,none
1c,11,100147,3,36,164,20,F,NA,variable,homogeneous,4,present,0.97645902633667,0,horizontal,vertical,1,1.08233873844147,green,3,4,878.799333565612,357.480588344736,557.480588344736,521.200666434388,721.200666434388,842.519411655264,1042.51941165526,678.799333565612,878.799333565612,357.480588344736,557.480588344736,521.200666434388,0,0,0,0,0,0,4,0,NaN,NaN,vertical,horizontal,horizontal,vertical,none,none
1c,11,100147,3,37,165,20,F,NA,variable,homogeneous,3,absent,1.01098299026489,1,vertical,vertical,1,0.9294020652771,red,2,NaN,1053.09926866854,568.923317431687,NaN,NaN,700.363562235235,834.728737630372,1053.09926866854,568.923317431687,646.537169096228,396.34794493794,0,0,0,0,0,0,0,4,0,NaN,NaN,NaN,horizontal,vertical,vertical,none,none,none
1c,11,100147,3,38,166,20,F,NA,variable,homogeneous,4,absent,1.10730695724487,1,vertical,vertical,1,0.799994111061096,red,3,NaN,704.475318678942,363.568117085469,NaN,NaN,895.524681321058,836.431882914531,1036.43188291453,504.475318678942,704.475318678942,363.568117085469,563.568117085469,695.524681321058,0,0,0,0,0,0,4,0,NaN,NaN,vertical,horizontal,vertical,vertical,none,none
1c,11,100147,3,39,167,20,F,NA,variable,homogeneous,5,absent,1.09039306640625,1,vertical,vertical,1,0.835287189483643,red,2,NaN,1043.85771277057,525.445215295702,NaN,NaN,946.261991269517,808.883771293693,1043.85771277057,525.445215295702,804.450363641507,345.03883773512,558.892763222174,516.980120613425,646.537169096228,803.65205506206,0,0,0,4,0,0,0,NaN,horizontal,vertical,vertical,horizontal,horizontal,none
1c,11,100147,3,40,168,20,F,NA,variable,homogeneous,5,absent,1.1593029499054,1,horizontal,horizontal,1,0.741172313690186,green,2,NaN,983.431649086356,777.137884467044,NaN,NaN,688.215357568785,829.192481806288,983.431649086356,777.137884467044,1025.15163617903,480.284751489598,755.719714694933,348.874022981887,547.481642470899,564.510859255183,0,0,0,4,0,0,0,NaN,horizontal,horizontal,horizontal,vertical,vertical,none
1c,11,100147,3,41,169,20,F,NA,variable,homogeneous,6,absent,0.943953037261963,1,vertical,vertical,1,0.858815908432007,red,6,NaN,581.422338320961,731.334709102064,NaN,NaN,804.450363641507,854.96116226488,1023.02802532055,723.626453162816,1018.57766167904,468.665290897936,795.549636358493,345.03883773512,576.971974679454,476.373546837184,581.422338320961,731.334709102064,0,0,0,0,0,4,horizontal,horizontal,horizontal,horizontal,vertical,vertical
1c,11,100147,3,42,170,20,F,NA,variable,homogeneous,4,absent,1.00980591773987,1,vertical,vertical,1,0.741172313690186,green,2,NaN,1031.10848569435,492.232343256122,NaN,NaN,907.767656743878,831.108485694346,1031.10848569435,492.232343256122,692.232343256122,368.891514305654,568.891514305654,707.767656743878,0,0,0,0,0,4,0,0,NaN,NaN,vertical,vertical,horizontal,vertical,none,none
1c,11,100147,3,43,171,20,F,NA,variable,homogeneous,6,present,1.36686086654663,1,horizontal,horizontal,1,0.647057437896729,green,3,4,1000.94274216971,443.006323791957,764.510859255183,347.4816424709,835.489140744817,852.518357529101,1036.43188291453,695.524681321058,1000.94274216971,443.006323791957,764.510859255183,347.4816424709,563.568117085469,504.475318678942,599.057257830286,756.993676208043,0,0,4,0,0,0,horizontal,horizontal,horizontal,horizontal,vertical,horizontal
1c,11,100147,3,44,172,20,F,NA,variable,homogeneous,6,absent,1.16313505172729,1,vertical,vertical,1,1.03528130054474,green,4,NaN,853.017481158529,350.57236181288,NaN,NaN,746.982518841471,849.42763818712,989.501930496736,770.628304621509,1042.51941165526,521.200666434388,853.017481158529,350.57236181288,610.498069503264,429.371695378491,557.480588344736,678.799333565612,0,0,0,4,0,0,horizontal,vertical,vertical,vertical,vertical,horizontal
1c,11,100147,3,45,173,20,F,NA,variable,homogeneous,6,present,1.24387907981873,0,horizontal,vertical,1,1.0588100194931,red,5,4,554.878267535729,529.712474266665,738.309916622085,352.574589799621,861.690083377915,847.425410200379,1045.12173246427,670.287525733335,983.431649086356,422.862115532956,738.309916622085,352.574589799621,554.878267535729,529.712474266665,616.568350913644,777.137884467044,0,0,0,0,4,0,horizontal,vertical,vertical,horizontal,horizontal,vertical
1c,11,100147,3,46,174,20,F,NA,variable,homogeneous,3,present,0.982578992843628,1,horizontal,horizontal,1,1.09410309791565,red,1,3,619.68777079743,780.31222920257,734.001143498857,353.688914296288,619.68777079743,780.31222920257,1046.31108570371,665.998856501143,734.001143498857,353.688914296288,0,0,0,0,0,0,4,0,0,NaN,NaN,NaN,horizontal,vertical,horizontal,none,none,none
1c,11,100147,3,47,175,20,F,NA,variable,homogeneous,3,present,0.863245010375977,1,horizontal,horizontal,1,0.635293078422546,green,1,2,622.862115532956,783.431649086356,1047.42541020038,661.690083377915,622.862115532956,783.431649086356,1047.42541020038,661.690083377915,729.712474266665,354.878267535729,0,0,0,0,0,0,4,0,0,NaN,NaN,NaN,horizontal,horizontal,vertical,none,none,none
1c,11,100147,3,48,176,20,F,NA,variable,homogeneous,4,absent,0.693595170974731,1,horizontal,horizontal,1,0.658821797370911,red,3,NaN,844.280285305067,348.874022981887,NaN,NaN,755.719714694933,851.125977018113,1051.12597701811,644.280285305067,844.280285305067,348.874022981887,548.874022981887,555.719714694933,0,0,0,0,0,0,4,0,NaN,NaN,horizontal,horizontal,horizontal,vertical,none,none
1c,11,100147,3,49,177,20,F,NA,variable,homogeneous,6,absent,0.717651128768921,1,horizontal,horizontal,1,1.09410309791565,red,3,NaN,980.31222920257,419.68777079743,NaN,NaN,865.998856501143,846.311085703712,1046.31108570371,665.998856501143,980.31222920257,419.68777079743,734.001143498857,353.688914296288,553.688914296288,534.001143498857,619.68777079743,780.31222920257,0,0,4,0,0,0,vertical,vertical,horizontal,vertical,vertical,horizontal
1c,11,100147,3,50,178,20,F,NA,variable,homogeneous,6,present,0.867112874984741,1,vertical,vertical,1,0.9294020652771,red,1,3,676.373546837184,823.028025320546,1054.96116226488,595.549636358493,676.373546837184,823.028025320546,931.334709102064,818.577661679039,1054.96116226488,595.549636358493,923.626453162816,376.971974679454,668.665290897936,381.422338320961,545.03883773512,604.450363641507,4,0,0,0,0,0,vertical,horizontal,horizontal,vertical,vertical,vertical
1c,11,100147,3,51,179,20,F,NA,variable,homogeneous,3,absent,1.14038395881653,1,vertical,vertical,1,0.6,green,3,NaN,791.100628340862,345.155339110131,NaN,NaN,583.747735480111,735.129412379467,1025.15163617903,719.715248510402,791.100628340862,345.155339110131,0,0,0,0,0,0,0,0,4,NaN,NaN,NaN,vertical,horizontal,vertical,none,none,none
1c,11,100147,3,52,180,20,F,NA,variable,homogeneous,3,present,0.620826959609985,1,vertical,vertical,1,0.870580267906189,green,2,3,800,345,579.163522034968,727.5,1020.83647796503,727.5,800,345,579.163522034968,727.5,0,0,0,0,0,0,0,4,0,NaN,NaN,NaN,vertical,vertical,horizontal,none,none,none
1c,11,100147,3,53,181,20,F,NA,variable,homogeneous,5,present,1.11974596977234,1,vertical,vertical,1,0.717643594741821,red,2,3,1013.86099482608,738.882953928832,998.172220171528,439.523300282291,734.001143498857,846.311085703712,1013.86099482608,738.882953928832,998.172220171528,439.523300282291,708.616172865948,361.936991243214,545.349468637584,613.345668841951,0,0,0,4,0,0,0,NaN,horizontal,vertical,vertical,horizontal,vertical,none
1c,11,100147,3,54,182,20,F,NA,variable,homogeneous,3,absent,0.79094386100769,1,horizontal,horizontal,1,0.623528718948364,green,3,NaN,800,345,NaN,NaN,579.163522034968,727.5,1020.83647796503,727.5,800,345,0,0,0,0,0,0,0,0,4,NaN,NaN,NaN,vertical,vertical,horizontal,none,none,none
1c,11,100147,3,55,183,20,F,NA,variable,homogeneous,6,absent,0.64081597328186,1,horizontal,horizontal,1,0.694114875793457,green,2,NaN,1039.62161830041,687.215136548046,NaN,NaN,844.280285305067,851.125977018113,1039.62161830041,687.215136548046,995.341332995339,436.089159529932,755.719714694933,348.874022981887,560.378381699593,512.784863451954,604.658667004661,763.910840470068,0,4,0,0,0,0,vertical,horizontal,vertical,vertical,horizontal,vertical
1c,11,100147,3,56,184,20,F,NA,variable,homogeneous,3,present,0.800375938415527,1,vertical,vertical,1,0.729407954216003,red,2,1,1031.10848569435,492.232343256122,777.775285599347,854.029648013395,777.775285599347,854.029648013395,1031.10848569435,492.232343256122,591.116228706307,453.738008730483,0,0,0,0,0,0,0,4,0,NaN,NaN,NaN,vertical,vertical,vertical,none,none,none
1c,11,100147,3,57,185,20,F,NA,variable,homogeneous,5,absent,1.05571293830872,1,horizontal,horizontal,1,0.741172313690186,red,4,NaN,604.658667004661,436.089159529932,NaN,NaN,861.690083377915,847.425410200379,1054.37883281626,617.787900804752,895.524681321058,363.568117085469,604.658667004661,436.089159529932,583.747735480111,735.129412379467,0,0,0,0,0,4,0,NaN,vertical,vertical,horizontal,horizontal,vertical,none
1c,11,100147,3,58,186,20,F,NA,variable,homogeneous,6,present,1.14160680770874,1,vertical,vertical,1,0.647057437896729,green,1,3,923.626453162816,823.028025320546,931.334709102064,381.422338320961,923.626453162816,823.028025320546,1054.96116226488,604.450363641507,931.334709102064,381.422338320961,676.373546837184,376.971974679454,545.03883773512,595.549636358493,668.665290897936,818.577661679039,4,0,0,0,0,0,vertical,horizontal,horizontal,horizontal,vertical,vertical
1c,11,100147,3,59,187,20,F,NA,variable,homogeneous,3,absent,0.714745044708252,0,horizontal,vertical,1,0.905873346328735,red,1,NaN,1018.57766167904,731.334709102064,NaN,NaN,1018.57766167904,731.334709102064,804.450363641507,345.03883773512,576.971974679454,723.626453162816,0,0,0,0,0,0,4,0,0,NaN,NaN,NaN,horizontal,vertical,vertical,none,none,none
1c,11,100147,3,60,188,20,F,NA,variable,homogeneous,4,present,0.976505994796753,1,horizontal,horizontal,1,0.76470103263855,red,1,2,688.215357568785,829.192481806288,1029.19248180629,711.784642431215,688.215357568785,829.192481806288,1029.19248180629,711.784642431215,911.784642431215,370.807518193712,570.807518193712,488.215357568785,0,0,0,0,4,0,0,0,NaN,NaN,horizontal,horizontal,horizontal,horizontal,none,none
1c,11,100147,3,61,189,20,F,NA,variable,homogeneous,4,present,0.713057041168213,1,horizontal,horizontal,1,0.635293078422546,red,4,3,613.504806087112,426.090418184063,973.909581815937,413.504806087112,626.090418184063,786.495193912888,986.495193912888,773.909581815937,973.909581815937,413.504806087112,613.504806087112,426.090418184063,0,0,0,0,0,0,0,4,NaN,NaN,horizontal,vertical,vertical,horizontal,none,none
1c,11,100147,3,62,190,20,F,NA,variable,homogeneous,3,absent,0.660231113433838,1,horizontal,horizontal,1,0.647057437896729,green,2,NaN,903.717843984329,367.045908301137,NaN,NaN,949.885239334581,806.299333565612,903.717843984329,367.045908301137,546.39691668109,626.654758133252,0,0,0,0,0,0,0,4,0,NaN,NaN,NaN,horizontal,horizontal,horizontal,none,none,none
1c,11,100147,3,63,191,20,F,NA,variable,homogeneous,3,absent,0.8233962059021,1,vertical,vertical,1,1.07057437896729,red,1,NaN,579.163522034968,727.5,NaN,NaN,579.163522034968,727.5,1020.83647796503,727.5,800,345,0,0,0,0,0,0,4,0,0,NaN,NaN,NaN,vertical,horizontal,horizontal,none,none,none
1c,11,100147,3,64,192,20,F,NA,variable,homogeneous,3,absent,0.779478073120117,0,horizontal,vertical,1,0.776465392112732,red,1,NaN,636.089159529932,795.341332995339,NaN,NaN,636.089159529932,795.341332995339,1051.12597701811,644.280285305067,712.784863451954,360.378381699593,0,0,0,0,0,0,4,0,0,NaN,NaN,NaN,horizontal,horizontal,horizontal,none,none,none
1c,11,100147,4,1,193,20,F,NA,variable,homogeneous,5,present,0.658446073532104,1,vertical,vertical,1,0.694114875793457,red,3,1,1008.88377129369,453.738008730483,716.980120613425,841.107236777826,716.980120613425,841.107236777826,1003.65205506206,753.462830903772,1008.88377129369,453.738008730483,725.445215295702,356.142287229426,545.03883773512,595.549636358493,0,0,0,0,4,0,0,NaN,vertical,vertical,vertical,vertical,vertical,none
1c,11,100147,4,2,194,20,F,NA,variable,homogeneous,5,present,1.21187400817871,1,horizontal,horizontal,1,0.6,red,3,2,1031.10848569435,492.232343256122,973.909581815937,786.495193912888,676.373546837184,823.028025320546,973.909581815937,786.495193912888,1031.10848569435,492.232343256122,768.923317431687,346.900731331463,549.685068220846,551.343706178981,0,0,0,0,4,0,0,NaN,horizontal,horizontal,horizontal,horizontal,horizontal,none
1c,11,100147,4,3,195,20,F,NA,variable,homogeneous,4,present,0.987643003463745,1,vertical,vertical,1,0.952930784225464,green,4,2,576.971974679454,476.373546837184,1023.02802532055,723.626453162816,676.373546837184,823.028025320546,1023.02802532055,723.626453162816,923.626453162816,376.971974679454,576.971974679454,476.373546837184,0,0,0,0,0,0,0,4,NaN,NaN,horizontal,vertical,vertical,vertical,none,none
1c,11,100147,4,4,196,20,F,NA,variable,homogeneous,6,present,1.04684114456177,1,horizontal,horizontal,1,0.76470103263855,red,1,5,883.019879386575,841.107236777826,549.685068220846,551.343706178981,883.019879386575,841.107236777826,1050.31493177915,648.656293821019,967.295052392579,407.549057043193,716.980120613425,358.892763222174,549.685068220846,551.343706178981,632.704947607421,792.450942956807,4,0,0,0,0,0,horizontal,horizontal,vertical,vertical,vertical,horizontal
1c,11,100147,4,5,197,20,F,NA,variable,homogeneous,6,present,0.758358001708984,1,vertical,vertical,1,0.717643594741821,red,1,6,887.215136548046,839.621618300407,636.089159529932,795.341332995339,887.215136548046,839.621618300407,1051.12597701811,644.280285305067,963.910840470068,404.658667004661,712.784863451954,360.378381699593,548.874022981887,555.719714694933,636.089159529932,795.341332995339,4,0,0,0,0,0,vertical,horizontal,horizontal,vertical,vertical,vertical
1c,11,100147,4,6,198,20,F,NA,variable,homogeneous,4,absent,1.22289609909058,1,horizontal,horizontal,1,0.658821797370911,red,4,NaN,588.595418998464,742.594190385041,NaN,NaN,942.594190385041,811.404581001536,1011.40458100154,457.40580961496,657.405809614959,388.595418998464,588.595418998464,742.594190385041,0,0,0,0,0,0,0,4,NaN,NaN,horizontal,vertical,horizontal,horizontal,none,none
1c,11,100147,4,7,199,20,F,NA,variable,homogeneous,3,present,0.754194021224976,1,vertical,vertical,1,0.9294020652771,red,3,2,545.349468637584,613.345668841951,915.767577433584,372.793336331966,938.882953928832,813.860994826083,915.767577433584,372.793336331966,545.349468637584,613.345668841951,0,0,0,0,0,0,0,0,4,NaN,NaN,NaN,horizontal,horizontal,vertical,none,none,none
1c,11,100147,4,8,200,20,F,NA,variable,homogeneous,5,absent,0.846474885940552,1,vertical,vertical,1,1.04704566001892,green,4,NaN,563.568117085469,504.475318678942,NaN,NaN,935.129412379467,816.252264519889,1047.42541020038,538.309916622085,817.787900804752,345.621167183745,563.568117085469,504.475318678942,636.089159529932,795.341332995339,0,0,0,0,0,4,0,NaN,vertical,horizontal,vertical,vertical,vertical,none
1c,11,100147,4,9,201,20,F,NA,variable,homogeneous,3,present,0.855933904647827,1,horizontal,horizontal,1,0.811758470535278,red,1,2,960.476699717708,798.172220171528,891.383827134052,361.936991243214,960.476699717708,798.172220171528,891.383827134052,361.936991243214,548.13947314824,639.890788585259,0,0,0,0,0,0,4,0,0,NaN,NaN,NaN,horizontal,vertical,horizontal,none,none,none
1c,11,100147,4,10,202,20,F,NA,variable,homogeneous,3,absent,0.711798906326294,1,vertical,vertical,1,0.741172313690186,red,2,NaN,1006.29933356561,450.114760665419,NaN,NaN,826.654758133252,853.60308331891,1006.29933356561,450.114760665419,567.045908301137,496.282156015671,0,0,0,0,0,0,0,4,0,NaN,NaN,NaN,horizontal,vertical,vertical,none,none,none
1c,11,100147,4,11,203,20,F,NA,variable,homogeneous,5,absent,1.1298291683197,1,vertical,vertical,1,0.976459503173828,red,1,NaN,883.019879386575,841.107236777826,NaN,NaN,883.019879386575,841.107236777826,1054.96116226488,595.549636358493,874.554784704298,356.142287229426,591.116228706307,453.738008730483,596.34794493794,753.462830903772,0,0,4,0,0,0,0,NaN,vertical,horizontal,vertical,horizontal,vertical,none
1c,11,100147,4,12,204,20,F,NA,variable,homogeneous,5,absent,0.991173028945923,1,horizontal,horizontal,1,0.917637705802917,red,5,NaN,545.621167183745,617.787900804752,NaN,NaN,738.309916622085,847.425410200379,1016.25226451989,735.129412379467,995.341332995339,436.089159529932,704.475318678942,363.568117085469,545.621167183745,617.787900804752,0,0,0,0,0,0,4,NaN,horizontal,horizontal,horizontal,horizontal,horizontal,none
1c,11,100147,4,13,205,20,F,NA,variable,homogeneous,3,absent,0.942174911499023,1,horizontal,horizontal,1,0.952930784225464,green,1,NaN,680.284751489598,825.151636179026,NaN,NaN,680.284751489598,825.151636179026,1054.84466088987,591.100628340862,664.870587620533,383.747735480111,0,0,0,0,0,0,4,0,0,NaN,NaN,NaN,horizontal,vertical,horizontal,none,none,none
1c,11,100147,4,14,206,20,F,NA,variable,homogeneous,6,present,0.765268087387085,1,vertical,vertical,1,0.999988222122192,green,6,4,546.39691668109,626.654758133252,903.717843984329,367.045908301137,696.282156015671,832.954091698863,949.885239334581,806.299333565612,1053.60308331891,573.345241866748,903.717843984329,367.045908301137,650.114760665419,393.700666434388,546.39691668109,626.654758133252,0,0,0,0,0,4,horizontal,vertical,horizontal,vertical,vertical,vertical
1c,11,100147,4,15,207,20,F,NA,variable,homogeneous,5,present,0.964875936508179,1,horizontal,horizontal,1,0.799994111061096,green,1,3,808.899371659138,854.844660889869,942.594190385041,388.595418998464,808.899371659138,854.844660889869,1045.12173246427,670.287525733335,942.594190385041,388.595418998464,643.006323791957,399.057257830286,560.378381699593,687.215136548046,0,0,4,0,0,0,0,NaN,horizontal,horizontal,horizontal,horizontal,vertical,none
1c,11,100147,4,16,208,20,F,NA,variable,homogeneous,5,absent,0.812745094299316,1,vertical,vertical,1,0.6,red,5,NaN,583.747735480111,735.129412379467,NaN,NaN,861.690083377915,847.425410200379,1054.37883281626,617.787900804752,895.524681321058,363.568117085469,604.658667004661,436.089159529932,583.747735480111,735.129412379467,0,0,0,0,0,0,4,NaN,vertical,vertical,vertical,horizontal,vertical,none
1c,11,100147,4,17,209,20,F,NA,variable,homogeneous,4,present,0.631331920623779,1,horizontal,horizontal,1,0.717643594741821,red,2,4,1032.95409169886,703.717843984329,567.045908301137,496.282156015671,696.282156015671,832.954091698863,1032.95409169886,703.717843984329,903.717843984329,367.045908301137,567.045908301137,496.282156015671,0,0,0,0,0,4,0,0,NaN,NaN,vertical,horizontal,horizontal,horizontal,none,none
1c,11,100147,4,18,210,20,F,NA,variable,homogeneous,5,present,0.799824953079224,1,vertical,vertical,1,0.98822386264801,red,5,4,646.537169096228,803.65205506206,558.892763222174,516.980120613425,946.261991269517,808.883771293693,1043.85771277057,525.445215295702,804.450363641507,345.03883773512,558.892763222174,516.980120613425,646.537169096228,803.65205506206,0,0,0,0,0,0,4,NaN,vertical,horizontal,horizontal,horizontal,vertical,none
1c,11,100147,4,19,211,20,F,NA,variable,homogeneous,4,absent,0.814438819885254,1,vertical,vertical,1,0.917637705802917,green,3,NaN,672.5,379.163522034968,NaN,NaN,927.5,820.836477965032,1020.83647796503,472.5,672.5,379.163522034968,579.163522034968,727.5,0,0,0,0,0,0,4,0,NaN,NaN,horizontal,horizontal,vertical,vertical,none,none
1c,11,100147,4,20,212,20,F,NA,variable,homogeneous,6,absent,0.715718984603882,1,horizontal,horizontal,1,0.635293078422546,green,3,NaN,1016.25226451989,464.870587620533,NaN,NaN,808.899371659138,854.844660889869,1025.15163617903,719.715248510402,1016.25226451989,464.870587620533,791.100628340862,345.155339110131,574.848363820974,480.284751489598,583.747735480111,735.129412379467,0,0,4,0,0,0,vertical,vertical,horizontal,vertical,horizontal,vertical
1c,11,100147,4,21,213,20,F,NA,variable,homogeneous,6,absent,0.542527198791504,1,horizontal,horizontal,1,1.02351694107056,red,3,NaN,967.295052392579,407.549057043193,NaN,NaN,883.019879386575,841.107236777826,1050.31493177915,648.656293821019,967.295052392579,407.549057043193,716.980120613425,358.892763222174,549.685068220846,551.343706178981,632.704947607421,792.450942956807,0,0,4,0,0,0,vertical,horizontal,horizontal,vertical,horizontal,vertical
1c,11,100147,4,22,214,20,F,NA,variable,homogeneous,5,absent,0.763304948806763,1,horizontal,horizontal,1,0.682350516319275,green,5,NaN,604.658667004661,763.910840470068,NaN,NaN,895.524681321058,836.431882914531,1054.37883281626,582.212099195248,861.690083377915,352.574589799621,583.747735480111,464.870587620533,604.658667004661,763.910840470068,0,0,0,0,0,0,4,NaN,horizontal,vertical,horizontal,vertical,horizontal,none
1c,11,100147,4,23,215,20,F,NA,variable,homogeneous,6,present,0.792533874511719,1,horizontal,horizontal,1,1.08233873844147,red,1,5,870.287525733335,845.121732464271,552.574589799621,538.309916622085,870.287525733335,845.121732464271,1047.42541020038,661.690083377915,977.137884467044,416.568350913644,729.712474266665,354.878267535729,552.574589799621,538.309916622085,622.862115532956,783.431649086356,4,0,0,0,0,0,horizontal,horizontal,horizontal,vertical,vertical,horizontal
1c,11,100147,4,24,216,20,F,NA,variable,homogeneous,3,present,0.825977087020874,1,vertical,vertical,1,1.07057437896729,green,1,2,953.462830903772,803.65205506206,899.636437764765,365.271262369628,953.462830903772,803.65205506206,899.636437764765,365.271262369628,546.900731331463,631.076682568313,0,0,0,0,0,0,4,0,0,NaN,NaN,NaN,vertical,vertical,horizontal,none,none,none
1c,11,100147,4,25,217,20,F,NA,variable,homogeneous,4,absent,0.7708420753479,1,horizontal,horizontal,1,1.01175258159637,green,1,NaN,746.982518841471,849.42763818712,NaN,NaN,746.982518841471,849.42763818712,1049.42763818712,653.017481158529,853.017481158529,350.57236181288,550.57236181288,546.982518841471,0,0,0,0,4,0,0,0,NaN,NaN,horizontal,horizontal,horizontal,vertical,none,none
1c,11,100147,4,26,218,20,F,NA,variable,homogeneous,4,present,1.06385612487793,1,horizontal,horizontal,1,0.658821797370911,red,3,2,887.215136548046,360.378381699593,1039.62161830041,687.215136548046,712.784863451954,839.621618300407,1039.62161830041,687.215136548046,887.215136548046,360.378381699593,560.378381699593,512.784863451954,0,0,0,0,0,0,4,0,NaN,NaN,vertical,vertical,horizontal,vertical,none,none
1c,11,100147,4,27,219,20,F,NA,variable,homogeneous,5,absent,1.06185698509216,1,vertical,vertical,1,0.835287189483643,green,3,NaN,1025.15163617903,480.284751489598,NaN,NaN,688.215357568785,829.192481806288,983.431649086356,777.137884467044,1025.15163617903,480.284751489598,755.719714694933,348.874022981887,547.481642470899,564.510859255183,0,0,0,0,4,0,0,NaN,horizontal,horizontal,vertical,vertical,vertical,none
1c,11,100147,4,28,220,20,F,NA,variable,homogeneous,6,absent,0.75786018371582,1,horizontal,horizontal,1,0.9294020652771,green,5,NaN,546.39691668109,573.345241866748,NaN,NaN,903.717843984329,832.954091698863,1053.60308331891,626.654758133252,949.885239334581,393.700666434388,696.282156015671,367.045908301137,546.39691668109,573.345241866748,650.114760665419,806.299333565612,0,0,0,0,4,0,vertical,horizontal,vertical,horizontal,horizontal,horizontal
1c,11,100147,4,29,221,20,F,NA,variable,homogeneous,3,absent,0.611616849899292,1,vertical,vertical,1,0.917637705802917,red,2,NaN,1054.0296480134,622.224714400653,NaN,NaN,653.738008730483,808.883771293693,1054.0296480134,622.224714400653,692.232343256122,368.891514305654,0,0,0,0,0,0,0,4,0,NaN,NaN,NaN,vertical,vertical,vertical,none,none,none
1c,11,100147,4,30,222,20,F,NA,variable,homogeneous,3,present,1.0501492023468,1,vertical,vertical,1,0.905873346328735,red,3,1,563.568117085469,504.475318678942,835.489140744817,852.518357529101,835.489140744817,852.518357529101,1000.94274216971,443.006323791957,563.568117085469,504.475318678942,0,0,0,0,0,0,0,0,4,NaN,NaN,NaN,horizontal,horizontal,vertical,none,none,none
1c,11,100147,4,31,223,20,F,NA,variable,homogeneous,5,present,0.849812984466553,1,vertical,vertical,1,0.917637705802917,green,1,2,688.215357568785,829.192481806288,983.431649086356,777.137884467044,688.215357568785,829.192481806288,983.431649086356,777.137884467044,1025.15163617903,480.284751489598,755.719714694933,348.874022981887,547.481642470899,564.510859255183,0,0,4,0,0,0,0,NaN,vertical,vertical,horizontal,horizontal,vertical,none
1c,11,100147,4,32,224,20,F,NA,variable,homogeneous,4,absent,0.613615989685059,1,vertical,vertical,1,0.9294020652771,red,2,NaN,1008.88377129369,453.738008730483,NaN,NaN,946.261991269517,808.883771293693,1008.88377129369,453.738008730483,653.738008730483,391.116228706307,591.116228706307,746.261991269517,0,0,0,0,0,4,0,0,NaN,NaN,horizontal,vertical,horizontal,vertical,none,none
1c,11,100147,4,33,225,20,F,NA,variable,homogeneous,4,absent,0.558393955230713,1,vertical,vertical,1,0.999988222122192,red,1,NaN,826.654758133252,853.60308331891,NaN,NaN,826.654758133252,853.60308331891,1053.60308331891,573.345241866748,773.345241866748,346.39691668109,546.39691668109,626.654758133252,0,0,0,0,4,0,0,0,NaN,NaN,vertical,vertical,horizontal,horizontal,none,none
1c,11,100147,4,34,226,20,F,NA,variable,homogeneous,6,present,0.762857913970947,1,horizontal,horizontal,1,0.670586156845093,green,6,2,668.665290897936,818.577661679039,1054.96116226488,604.450363641507,923.626453162816,823.028025320546,1054.96116226488,604.450363641507,931.334709102064,381.422338320961,676.373546837184,376.971974679454,545.03883773512,595.549636358493,668.665290897936,818.577661679039,0,0,0,0,0,4,vertical,vertical,horizontal,horizontal,vertical,horizontal
1c,11,100147,4,35,227,20,F,NA,variable,homogeneous,4,absent,0.676668167114258,1,horizontal,horizontal,1,0.729407954216003,red,3,NaN,782.212099195248,345.621167183745,NaN,NaN,817.787900804752,854.378832816255,1054.37883281626,582.212099195248,782.212099195248,345.621167183745,545.621167183745,617.787900804752,0,0,0,0,0,0,4,0,NaN,NaN,vertical,vertical,horizontal,horizontal,none,none
1c,11,100147,4,36,228,20,F,NA,variable,homogeneous,4,present,0.627518177032471,0,vertical,horizontal,1,0.647057437896729,red,4,2,583.747735480111,464.870587620533,1016.25226451989,735.129412379467,664.870587620533,816.252264519889,1016.25226451989,735.129412379467,935.129412379467,383.747735480111,583.747735480111,464.870587620533,0,0,0,0,0,0,0,4,NaN,NaN,horizontal,vertical,vertical,vertical,none,none
1c,11,100147,4,37,229,20,F,NA,variable,homogeneous,3,present,0.667956113815308,1,vertical,vertical,1,0.98822386264801,green,3,2,576.971974679454,476.373546837184,1018.57766167904,468.665290897936,804.450363641507,854.96116226488,1018.57766167904,468.665290897936,576.971974679454,476.373546837184,0,0,0,0,0,0,0,0,4,NaN,NaN,NaN,horizontal,vertical,vertical,none,none,none
1c,11,100147,4,38,230,20,F,NA,variable,homogeneous,5,absent,0.870333194732666,1,horizontal,horizontal,1,0.647057437896729,red,1,NaN,835.489140744817,852.518357529101,NaN,NaN,835.489140744817,852.518357529101,1051.12597701811,644.280285305067,919.715248510402,374.848363820974,622.862115532956,416.568350913644,570.807518193712,711.784642431215,0,0,4,0,0,0,0,NaN,horizontal,vertical,horizontal,horizontal,vertical,none
1c,11,100147,4,39,231,20,F,NA,variable,homogeneous,3,present,1.20779204368591,1,horizontal,horizontal,1,0.98822386264801,green,3,2,588.595418998464,457.40580961496,1029.19248180629,488.215357568785,782.212099195248,854.378832816255,1029.19248180629,488.215357568785,588.595418998464,457.40580961496,0,0,0,0,0,0,0,0,4,NaN,NaN,NaN,horizontal,horizontal,horizontal,none,none,none
1c,11,100147,4,40,232,20,F,NA,variable,homogeneous,4,present,0.822387933731079,1,vertical,vertical,1,0.917637705802917,green,2,4,1041.10723677783,516.980120613425,558.892763222174,683.019879386575,883.019879386575,841.107236777826,1041.10723677783,516.980120613425,716.980120613425,358.892763222174,558.892763222174,683.019879386575,0,0,0,0,0,4,0,0,NaN,NaN,vertical,vertical,horizontal,vertical,none,none
1c,11,100147,4,41,233,20,F,NA,variable,homogeneous,5,absent,0.884582042694092,1,horizontal,horizontal,1,0.670586156845093,green,1,NaN,746.982518841471,849.42763818712,NaN,NaN,746.982518841471,849.42763818712,1020.83647796503,727.5,989.501930496736,429.371695378491,696.282156015671,367.045908301137,546.39691668109,626.654758133252,0,0,4,0,0,0,0,NaN,horizontal,vertical,vertical,horizontal,vertical,none
1c,11,100147,4,42,234,20,F,NA,variable,homogeneous,4,absent,0.645894050598145,1,vertical,vertical,1,0.752936673164368,green,1,NaN,822.224714400653,854.029648013395,NaN,NaN,822.224714400653,854.029648013395,1054.0296480134,577.775285599347,777.775285599347,345.970351986605,545.970351986605,622.224714400653,0,0,0,0,4,0,0,0,NaN,NaN,vertical,horizontal,horizontal,vertical,none,none
1c,11,100147,4,43,235,20,F,NA,variable,homogeneous,5,present,1.16296195983887,1,vertical,vertical,1,0.999988222122192,green,4,2,619.68777079743,419.68777079743,1051.86052685176,639.890788585259,839.890788585259,851.86052685176,1051.86052685176,639.890788585259,915.767577433584,372.793336331966,619.68777079743,419.68777079743,572.793336331966,715.767577433584,0,0,0,0,0,4,0,NaN,vertical,vertical,vertical,vertical,vertical,none
1c,11,100147,4,44,236,20,F,NA,variable,homogeneous,5,present,0.836099147796631,1,horizontal,horizontal,1,0.905873346328735,red,1,4,795.549636358493,854.96116226488,653.738008730483,391.116228706307,795.549636358493,854.96116226488,1041.10723677783,683.019879386575,953.462830903772,396.34794493794,653.738008730483,391.116228706307,556.142287229426,674.554784704298,0,0,4,0,0,0,0,NaN,horizontal,vertical,horizontal,horizontal,vertical,none
1c,11,100147,4,45,237,20,F,NA,variable,homogeneous,6,present,0.835875988006592,1,vertical,vertical,1,0.9294020652771,red,4,3,764.510859255183,347.4816424709,1000.94274216971,443.006323791957,835.489140744817,852.518357529101,1036.43188291453,695.524681321058,1000.94274216971,443.006323791957,764.510859255183,347.4816424709,563.568117085469,504.475318678942,599.057257830286,756.993676208043,0,0,0,4,0,0,horizontal,horizontal,horizontal,vertical,vertical,horizontal
1c,11,100147,4,46,238,20,F,NA,variable,homogeneous,6,present,0.776098012924194,1,vertical,vertical,1,0.76470103263855,green,6,3,545.03883773512,604.450363641507,1054.96116226488,595.549636358493,676.373546837184,823.028025320546,931.334709102064,818.577661679039,1054.96116226488,595.549636358493,923.626453162816,376.971974679454,668.665290897936,381.422338320961,545.03883773512,604.450363641507,0,0,0,0,0,4,horizontal,vertical,vertical,vertical,vertical,vertical
1c,11,100147,4,47,239,20,F,NA,variable,homogeneous,3,present,0.826473951339722,1,horizontal,horizontal,1,0.729407954216003,green,3,1,746.982518841471,350.57236181288,610.498069503264,770.628304621509,610.498069503264,770.628304621509,1042.51941165526,678.799333565612,746.982518841471,350.57236181288,0,0,0,0,0,0,0,0,4,NaN,NaN,NaN,horizontal,horizontal,horizontal,none,none,none
1c,11,100147,4,48,240,20,F,NA,variable,homogeneous,6,absent,0.644078969955444,1,vertical,vertical,1,0.835287189483643,green,4,NaN,734.001143498857,353.688914296288,NaN,NaN,865.998856501143,846.311085703712,1046.31108570371,665.998856501143,980.31222920257,419.68777079743,734.001143498857,353.688914296288,553.688914296288,534.001143498857,619.68777079743,780.31222920257,0,0,0,4,0,0,horizontal,horizontal,horizontal,vertical,horizontal,horizontal
1c,11,100147,4,49,241,20,F,NA,variable,homogeneous,4,present,1.65013790130615,1,vertical,vertical,1,0.858815908432007,red,4,1,552.574589799621,661.690083377915,861.690083377915,847.425410200379,861.690083377915,847.425410200379,1047.42541020038,538.309916622085,738.309916622085,352.574589799621,552.574589799621,661.690083377915,0,0,0,0,0,0,0,4,NaN,NaN,horizontal,vertical,vertical,vertical,none,none
1c,11,100147,4,50,242,20,F,NA,variable,homogeneous,3,absent,0.580871105194092,1,vertical,vertical,1,0.882344627380371,green,3,NaN,692.232343256122,368.891514305654,NaN,NaN,653.738008730483,808.883771293693,1054.0296480134,622.224714400653,692.232343256122,368.891514305654,0,0,0,0,0,0,0,0,4,NaN,NaN,NaN,horizontal,horizontal,vertical,none,none,none
1c,11,100147,4,51,243,20,F,NA,variable,homogeneous,4,present,0.721112012863159,1,horizontal,horizontal,1,0.82352283000946,green,1,3,931.334709102064,818.577661679039,668.665290897936,381.422338320961,931.334709102064,818.577661679039,1018.57766167904,468.665290897936,668.665290897936,381.422338320961,581.422338320961,731.334709102064,0,0,0,0,4,0,0,0,NaN,NaN,horizontal,vertical,horizontal,horizontal,none,none
1c,11,100147,4,52,244,20,F,NA,variable,homogeneous,5,present,1.00271105766296,1,horizontal,horizontal,1,0.941166424751282,green,1,4,650.114760665419,806.299333565612,800,345,650.114760665419,806.299333565612,949.885239334581,806.299333565612,1042.51941165526,521.200666434388,800,345,557.480588344736,521.200666434388,0,0,4,0,0,0,0,NaN,horizontal,horizontal,horizontal,vertical,vertical,none
