experiment,subject,uniqueID,block,trial,trial_cumulative,age,gender,color_cond_blocking,color_history,shape_type,set_size,distractor,rt,acc,target_orient,response_key,response_made,iti,target_color,target_item,distractor_item,target_X,target_Y,distractor_X,distractor_Y,item1_X,item1_Y,item2_X,item2_Y,item3_X,item3_Y,item4_X,item4_Y,item5_X,item5_Y,item6_X,item6_Y,item1_shape,item2_shape,item3_shape,item4_shape,item5_shape,item6_shape,item1_line,item2_line,item3_line,item4_line,item5_line,item6_line
1c,12,100150,1,1,1,21,M,NA,variable,homogeneous,5,present,1.51921510696411,0,vertical,horizontal,1,0.717645597457886,red,3,4,800,345,557.480588344736,521.200666434388,949.885239334581,806.299333565612,1042.51941165526,521.200666434388,800,345,557.480588344736,521.200666434388,650.114760665419,806.299333565612,0,0,0,0,4,0,0,NaN,vertical,horizontal,vertical,horizontal,horizontal,none
1c,12,100150,1,2,2,21,M,NA,variable,homogeneous,3,absent,0.995324850082397,1,horizontal,horizontal,1,0.882349433898926,red,3,NaN,629.371695378491,410.498069503264,NaN,NaN,721.200666434388,842.519411655264,1049.42763818712,546.982518841471,629.371695378491,410.498069503264,0,0,0,0,0,0,0,0,4,NaN,NaN,NaN,horizontal,horizontal,horizontal,none,none,none
1c,12,100150,1,3,3,21,M,NA,variable,homogeneous,3,absent,0.945148944854736,1,vertical,vertical,1,1.08234694957733,red,3,NaN,619.68777079743,419.68777079743,NaN,NaN,734.001143498857,846.311085703712,1046.31108570371,534.001143498857,619.68777079743,419.68777079743,0,0,0,0,0,0,0,0,4,NaN,NaN,NaN,horizontal,vertical,vertical,none,none,none
1c,12,100150,1,4,4,21,M,NA,variable,homogeneous,5,present,1.20428490638733,1,vertical,vertical,1,0.611764559745789,green,5,3,545.349468637584,613.345668841951,998.172220171528,439.523300282291,734.001143498857,846.311085703712,1013.86099482608,738.882953928832,998.172220171528,439.523300282291,708.616172865948,361.936991243214,545.349468637584,613.345668841951,0,0,0,0,0,0,4,NaN,vertical,horizontal,horizontal,horizontal,vertical,none
1c,12,100150,1,5,5,21,M,NA,variable,homogeneous,6,present,1.74638390541077,1,vertical,vertical,1,0.694116477966309,red,4,6,721.200666434388,357.480588344736,629.371695378491,789.501930496736,878.799333565612,842.519411655264,1049.42763818712,653.017481158529,970.628304621509,410.498069503264,721.200666434388,357.480588344736,550.57236181288,546.982518841471,629.371695378491,789.501930496736,0,0,0,4,0,0,horizontal,vertical,vertical,vertical,horizontal,horizontal
1c,12,100150,1,6,6,21,M,NA,variable,homogeneous,5,absent,0.831422090530396,1,vertical,vertical,1,0.68235191822052,red,3,NaN,1027.20666366803,484.232422566416,NaN,NaN,684.232422566416,827.206663668034,980.31222920257,780.31222920257,1027.20666366803,484.232422566416,760.109211414741,348.13947314824,548.13947314824,560.109211414741,0,0,0,0,4,0,0,NaN,horizontal,horizontal,vertical,horizontal,vertical,none
1c,12,100150,1,7,7,21,M,NA,variable,homogeneous,6,present,1.23399996757507,1,horizontal,horizontal,1,0.905878553390503,red,3,5,946.261991269517,391.116228706307,545.970351986605,577.775285599347,907.767656743878,831.108485694346,1054.0296480134,622.224714400653,946.261991269517,391.116228706307,692.232343256122,368.891514305654,545.970351986605,577.775285599347,653.738008730483,808.883771293693,0,0,4,0,0,0,horizontal,vertical,horizontal,horizontal,vertical,horizontal
1c,12,100150,1,8,8,21,M,NA,variable,homogeneous,6,present,0.935340881347656,1,horizontal,horizontal,1,0.811762075424194,green,5,6,583.747735480111,464.870587620533,574.848363820974,719.715248510402,791.100628340862,854.844660889869,1016.25226451989,735.129412379467,1025.15163617903,480.284751489598,808.899371659138,345.155339110131,583.747735480111,464.870587620533,574.848363820974,719.715248510402,0,0,0,0,4,0,vertical,vertical,horizontal,horizontal,horizontal,horizontal
1c,12,100150,1,9,9,21,M,NA,variable,homogeneous,4,absent,1.78250288963318,1,horizontal,horizontal,1,0.611764559745789,green,2,NaN,989.501930496736,429.371695378491,NaN,NaN,970.628304621509,789.501930496736,989.501930496736,429.371695378491,629.371695378491,410.498069503264,610.498069503264,770.628304621509,0,0,0,0,0,4,0,0,NaN,NaN,vertical,horizontal,horizontal,vertical,none,none
1c,12,100150,1,10,10,21,M,NA,variable,homogeneous,6,present,1.48056602478027,1,horizontal,horizontal,1,0.705881037712097,red,6,4,552.574589799621,661.690083377915,870.287525733335,354.878267535729,729.712474266665,845.121732464271,977.137884467044,783.431649086356,1047.42541020038,538.309916622085,870.287525733335,354.878267535729,622.862115532956,416.568350913644,552.574589799621,661.690083377915,0,0,0,0,0,4,horizontal,horizontal,vertical,vertical,vertical,horizontal
1c,12,100150,1,11,11,21,M,NA,variable,homogeneous,5,absent,0.569601058959961,1,horizontal,horizontal,1,0.788232955932617,red,5,NaN,545.03883773512,595.549636358493,NaN,NaN,716.980120613425,841.107236777826,1003.65205506206,753.462830903772,1008.88377129369,453.738008730483,725.445215295702,356.142287229426,545.03883773512,595.549636358493,0,0,0,0,0,0,4,NaN,horizontal,vertical,vertical,vertical,horizontal,none
1c,12,100150,1,12,12,21,M,NA,variable,homogeneous,3,present,1.56603908538818,1,vertical,vertical,1,1.03528871059418,red,3,1,734.001143498857,353.688914296288,619.68777079743,780.31222920257,619.68777079743,780.31222920257,1046.31108570371,665.998856501143,734.001143498857,353.688914296288,0,0,0,0,0,0,0,0,4,NaN,NaN,NaN,vertical,horizontal,vertical,none,none,none
1c,12,100150,1,13,13,21,M,NA,variable,homogeneous,6,present,0.924339056015015,1,horizontal,horizontal,1,0.729410157203674,green,6,2,657.405809614959,811.404581001536,1054.37883281626,617.787900804752,911.784642431215,829.192481806288,1054.37883281626,617.787900804752,942.594190385041,388.595418998464,688.215357568785,370.807518193712,545.621167183745,582.212099195248,657.405809614959,811.404581001536,0,0,0,0,0,4,horizontal,vertical,horizontal,vertical,vertical,horizontal
1c,12,100150,1,14,14,21,M,NA,variable,homogeneous,5,present,0.782904863357544,1,vertical,vertical,1,0.988230471611023,green,3,2,983.431649086356,422.862115532956,1025.15163617903,719.715248510402,755.719714694933,851.125977018113,1025.15163617903,719.715248510402,983.431649086356,422.862115532956,688.215357568785,370.807518193712,547.481642470899,635.489140744817,0,0,0,0,4,0,0,NaN,vertical,vertical,vertical,horizontal,horizontal,none
1c,12,100150,1,15,15,21,M,NA,variable,homogeneous,6,absent,0.892065048217773,1,vertical,vertical,1,1.07058238983154,green,5,NaN,549.685068220846,551.343706178981,NaN,NaN,883.019879386575,841.107236777826,1050.31493177915,648.656293821019,967.295052392579,407.549057043193,716.980120613425,358.892763222174,549.685068220846,551.343706178981,632.704947607421,792.450942956807,0,0,0,0,4,0,vertical,horizontal,vertical,horizontal,vertical,vertical
1c,12,100150,1,16,16,21,M,NA,variable,homogeneous,6,absent,1.75716114044189,1,vertical,vertical,1,0.752939276695251,green,1,NaN,878.799333565612,842.519411655264,NaN,NaN,878.799333565612,842.519411655264,1049.42763818712,653.017481158529,970.628304621509,410.498069503264,721.200666434388,357.480588344736,550.57236181288,546.982518841471,629.371695378491,789.501930496736,4,0,0,0,0,0,vertical,horizontal,vertical,vertical,vertical,vertical
1c,12,100150,1,17,17,21,M,NA,variable,homogeneous,5,present,1.15177297592163,0,horizontal,vertical,1,0.776468396186829,green,5,4,572.793336331966,715.767577433584,619.68777079743,419.68777079743,839.890788585259,851.86052685176,1051.86052685176,639.890788585259,915.767577433584,372.793336331966,619.68777079743,419.68777079743,572.793336331966,715.767577433584,0,0,0,0,0,0,4,NaN,horizontal,horizontal,vertical,vertical,horizontal,none
1c,12,100150,1,18,18,21,M,NA,variable,homogeneous,6,absent,1.4508101940155,1,horizontal,horizontal,1,0.776468396186829,red,1,NaN,831.076682568313,853.099268668537,NaN,NaN,831.076682568313,853.099268668537,1034.72873763037,699.636437764765,1003.65205506206,446.537169096228,768.923317431687,346.900731331463,565.271262369628,500.363562235235,596.34794493794,753.462830903772,4,0,0,0,0,0,horizontal,vertical,horizontal,vertical,vertical,horizontal
1c,12,100150,1,19,19,21,M,NA,variable,homogeneous,3,present,0.709192991256714,1,horizontal,horizontal,1,1.05881783008575,red,1,2,729.712474266665,845.121732464271,1047.42541020038,538.309916622085,729.712474266665,845.121732464271,1047.42541020038,538.309916622085,622.862115532956,416.568350913644,0,0,0,0,0,0,4,0,0,NaN,NaN,NaN,horizontal,vertical,horizontal,none,none,none
1c,12,100150,1,20,20,21,M,NA,variable,homogeneous,3,present,1.22582697868347,1,horizontal,horizontal,1,0.717645597457886,green,1,2,692.232343256122,831.108485694346,1054.0296480134,577.775285599347,692.232343256122,831.108485694346,1054.0296480134,577.775285599347,653.738008730483,391.116228706307,0,0,0,0,0,0,4,0,0,NaN,NaN,NaN,horizontal,horizontal,horizontal,none,none,none
1c,12,100150,1,21,21,21,M,NA,variable,homogeneous,4,present,1.14365291595459,1,vertical,vertical,1,0.84705575466156,green,2,3,1027.20666366803,715.767577433584,915.767577433584,372.793336331966,684.232422566416,827.206663668034,1027.20666366803,715.767577433584,915.767577433584,372.793336331966,572.793336331966,484.232422566416,0,0,0,0,0,4,0,0,NaN,NaN,vertical,vertical,vertical,vertical,none,none
1c,12,100150,1,22,22,21,M,NA,variable,homogeneous,4,present,1.82915997505188,1,horizontal,horizontal,1,0.92940767288208,red,1,4,721.200666434388,842.519411655264,557.480588344736,521.200666434388,721.200666434388,842.519411655264,1042.51941165526,678.799333565612,878.799333565612,357.480588344736,557.480588344736,521.200666434388,0,0,0,0,4,0,0,0,NaN,NaN,horizontal,horizontal,vertical,vertical,none,none
1c,12,100150,1,23,23,21,M,NA,variable,homogeneous,4,present,0.799149990081787,1,vertical,vertical,1,0.858820314407349,red,3,4,963.910840470068,404.658667004661,604.658667004661,436.089159529932,636.089159529932,795.341332995339,995.341332995339,763.910840470068,963.910840470068,404.658667004661,604.658667004661,436.089159529932,0,0,0,0,0,0,4,0,NaN,NaN,horizontal,vertical,vertical,horizontal,none,none
1c,12,100150,1,24,24,21,M,NA,variable,homogeneous,4,present,1.41053509712219,1,vertical,vertical,1,0.752939276695251,green,2,3,1054.84466088987,591.100628340862,791.100628340862,345.155339110131,808.899371659138,854.844660889869,1054.84466088987,591.100628340862,791.100628340862,345.155339110131,545.155339110131,608.899371659138,0,0,0,0,0,4,0,0,NaN,NaN,vertical,vertical,vertical,horizontal,none,none
1c,12,100150,1,25,25,21,M,NA,variable,homogeneous,3,present,0.828943014144897,1,horizontal,horizontal,1,1.09411150932312,green,3,2,742.637481142314,351.535633479765,1043.85771277057,674.554784704298,613.504806087112,773.909581815937,1043.85771277057,674.554784704298,742.637481142314,351.535633479765,0,0,0,0,0,0,0,0,4,NaN,NaN,NaN,horizontal,horizontal,horizontal,none,none,none
1c,12,100150,1,26,26,21,M,NA,variable,homogeneous,5,absent,0.863813877105713,1,horizontal,horizontal,1,0.905878553390503,green,2,NaN,967.295052392579,792.450942956807,NaN,NaN,668.665290897936,818.577661679039,967.295052392579,792.450942956807,1034.72873763037,500.363562235235,777.775285599347,345.970351986605,551.535633479765,542.637481142314,0,0,0,4,0,0,0,NaN,horizontal,horizontal,horizontal,vertical,horizontal,none
1c,12,100150,1,27,27,21,M,NA,variable,homogeneous,4,absent,0.753241062164307,1,vertical,vertical,1,0.6,red,4,NaN,561.936991243214,691.383827134052,NaN,NaN,891.383827134052,838.063008756786,1038.06300875679,508.616172865948,708.616172865948,361.936991243214,561.936991243214,691.383827134052,0,0,0,0,0,0,0,4,NaN,NaN,horizontal,horizontal,vertical,vertical,none,none
1c,12,100150,1,28,28,21,M,NA,variable,homogeneous,6,absent,1.05589985847473,1,horizontal,horizontal,1,0.964701352119446,red,6,NaN,626.090418184063,786.495193912888,NaN,NaN,874.554784704298,843.857712770574,1048.46436652023,657.362518857686,973.909581815937,413.504806087112,725.445215295702,356.142287229426,551.535633479765,542.637481142314,626.090418184063,786.495193912888,0,0,0,0,0,4,horizontal,horizontal,horizontal,horizontal,vertical,horizontal
1c,12,100150,1,29,29,21,M,NA,variable,homogeneous,4,absent,0.766435146331787,1,horizontal,horizontal,1,0.670587358474731,green,4,NaN,553.688914296288,534.001143498857,NaN,NaN,734.001143498857,846.311085703712,1046.31108570371,665.998856501143,865.998856501143,353.688914296288,553.688914296288,534.001143498857,0,0,0,0,0,0,0,4,NaN,NaN,horizontal,horizontal,horizontal,horizontal,none,none
1c,12,100150,1,30,30,21,M,NA,variable,homogeneous,4,present,1.01973605155945,1,vertical,vertical,1,1.08234694957733,red,3,4,622.862115532956,416.568350913644,616.568350913644,777.137884467044,977.137884467044,783.431649086356,983.431649086356,422.862115532956,622.862115532956,416.568350913644,616.568350913644,777.137884467044,0,0,0,0,0,0,4,0,NaN,NaN,vertical,vertical,vertical,vertical,none,none
1c,12,100150,1,31,31,21,M,NA,variable,homogeneous,5,present,0.757609844207764,1,horizontal,horizontal,1,0.870584874153137,red,2,1,1046.31108570371,534.001143498857,938.882953928832,813.860994826083,938.882953928832,813.860994826083,1046.31108570371,534.001143498857,813.345668841951,345.349468637584,561.936991243214,508.616172865948,639.523300282292,798.172220171528,0,0,0,4,0,0,0,NaN,vertical,horizontal,horizontal,vertical,horizontal,none
1c,12,100150,1,32,32,21,M,NA,variable,homogeneous,3,absent,NaN,0,horizontal,none,0,0.905878553390503,green,1,NaN,980.31222920257,780.31222920257,NaN,NaN,980.31222920257,780.31222920257,865.998856501143,353.688914296288,553.688914296288,665.998856501143,0,0,0,0,0,0,4,0,0,NaN,NaN,NaN,horizontal,vertical,horizontal,none,none,none
1c,12,100150,1,33,33,21,M,NA,variable,homogeneous,4,absent,0.668808937072754,1,horizontal,horizontal,1,0.870584874153137,red,4,NaN,610.498069503264,770.628304621509,NaN,NaN,970.628304621509,789.501930496736,989.501930496736,429.371695378491,629.371695378491,410.498069503264,610.498069503264,770.628304621509,0,0,0,0,0,0,0,4,NaN,NaN,horizontal,horizontal,horizontal,horizontal,none,none
1c,12,100150,1,34,34,21,M,NA,variable,homogeneous,6,absent,0.758746147155762,1,horizontal,horizontal,1,0.823526635169983,green,5,NaN,646.537169096228,396.34794493794,NaN,NaN,700.363562235235,834.728737630372,953.462830903772,803.65205506206,1053.09926866854,568.923317431687,899.636437764765,365.271262369628,646.537169096228,396.34794493794,546.900731331463,631.076682568313,0,0,0,0,4,0,vertical,horizontal,vertical,horizontal,horizontal,vertical
1c,12,100150,1,35,35,21,M,NA,variable,homogeneous,4,present,0.668287038803101,1,horizontal,horizontal,1,0.717645597457886,green,4,2,583.747735480111,735.129412379467,1016.25226451989,464.870587620533,935.129412379467,816.252264519889,1016.25226451989,464.870587620533,664.870587620533,383.747735480111,583.747735480111,735.129412379467,0,0,0,0,0,0,0,4,NaN,NaN,horizontal,horizontal,horizontal,horizontal,none,none
1c,12,100150,1,36,36,21,M,NA,variable,homogeneous,5,present,1.62729597091675,1,vertical,vertical,1,0.658822798728943,red,2,4,1052.5183575291,635.489140744817,616.568350913644,422.862115532956,844.280285305067,851.125977018113,1052.5183575291,635.489140744817,911.784642431215,370.807518193712,616.568350913644,422.862115532956,574.848363820974,719.715248510402,0,0,0,4,0,0,0,NaN,vertical,vertical,vertical,horizontal,vertical,none
1c,12,100150,1,37,37,21,M,NA,variable,homogeneous,5,absent,1.11428380012512,1,horizontal,horizontal,1,0.717645597457886,red,4,NaN,791.100628340862,345.155339110131,NaN,NaN,657.405809614959,811.404581001536,956.993676208043,800.942742169714,1039.62161830041,512.784863451954,791.100628340862,345.155339110131,554.878267535729,529.712474266665,0,0,0,0,0,4,0,NaN,vertical,vertical,vertical,horizontal,horizontal,none
1c,12,100150,1,38,38,21,M,NA,variable,homogeneous,6,absent,0.986097097396851,1,horizontal,horizontal,1,0.882349433898926,green,2,NaN,1011.40458100154,742.594190385041,NaN,NaN,782.212099195248,854.378832816255,1011.40458100154,742.594190385041,1029.19248180629,488.215357568785,817.787900804752,345.621167183745,588.595418998464,457.40580961496,570.807518193712,711.784642431215,0,4,0,0,0,0,horizontal,horizontal,horizontal,vertical,horizontal,vertical
1c,12,100150,1,39,39,21,M,NA,variable,homogeneous,5,absent,1.16572690010071,1,vertical,vertical,1,0.976465911865234,red,1,NaN,755.719714694933,851.125977018113,NaN,NaN,755.719714694933,851.125977018113,1025.15163617903,719.715248510402,983.431649086356,422.862115532956,688.215357568785,370.807518193712,547.481642470899,635.489140744817,0,0,4,0,0,0,0,NaN,vertical,horizontal,vertical,vertical,vertical,none
1c,12,100150,1,40,40,21,M,NA,variable,homogeneous,6,present,1.07392692565918,1,vertical,vertical,1,0.835291194915772,green,5,1,629.371695378491,410.498069503264,721.200666434388,842.519411655264,721.200666434388,842.519411655264,970.628304621509,789.501930496736,1049.42763818712,546.982518841471,878.799333565612,357.480588344736,629.371695378491,410.498069503264,550.57236181288,653.017481158529,0,0,0,0,4,0,vertical,vertical,vertical,vertical,vertical,vertical
1c,12,100150,1,41,41,21,M,NA,variable,homogeneous,3,absent,0.848510980606079,1,vertical,vertical,1,1.04705327033997,green,3,NaN,583.747735480111,464.870587620533,NaN,NaN,791.100628340862,854.844660889869,1025.15163617903,480.284751489598,583.747735480111,464.870587620533,0,0,0,0,0,0,0,0,4,NaN,NaN,NaN,horizontal,horizontal,vertical,none,none,none
1c,12,100150,1,42,42,21,M,NA,variable,homogeneous,6,absent,0.978878021240234,1,vertical,vertical,1,1.05881783008575,red,3,NaN,989.501930496736,429.371695378491,NaN,NaN,853.017481158529,849.42763818712,1042.51941165526,678.799333565612,989.501930496736,429.371695378491,746.982518841471,350.57236181288,557.480588344736,521.200666434388,610.498069503264,770.628304621509,0,0,4,0,0,0,vertical,vertical,vertical,horizontal,horizontal,vertical
1c,12,100150,1,43,43,21,M,NA,variable,homogeneous,3,absent,0.940932989120483,1,horizontal,horizontal,1,0.905878553390503,green,3,NaN,721.200666434388,357.480588344736,NaN,NaN,629.371695378491,789.501930496736,1049.42763818712,653.017481158529,721.200666434388,357.480588344736,0,0,0,0,0,0,0,0,4,NaN,NaN,NaN,vertical,horizontal,horizontal,none,none,none
1c,12,100150,1,44,44,21,M,NA,variable,homogeneous,6,present,1.34936118125916,1,vertical,vertical,1,1.07058238983154,red,1,5,835.489140744817,852.518357529101,563.568117085469,504.475318678942,835.489140744817,852.518357529101,1036.43188291453,695.524681321058,1000.94274216971,443.006323791957,764.510859255183,347.4816424709,563.568117085469,504.475318678942,599.057257830286,756.993676208043,4,0,0,0,0,0,vertical,horizontal,vertical,vertical,horizontal,vertical
1c,12,100150,1,45,45,21,M,NA,variable,homogeneous,3,present,1.45220398902893,1,vertical,vertical,1,0.799997515678406,red,2,3,946.261991269517,391.116228706307,545.970351986605,577.775285599347,907.767656743878,831.108485694346,946.261991269517,391.116228706307,545.970351986605,577.775285599347,0,0,0,0,0,0,0,4,0,NaN,NaN,NaN,vertical,vertical,horizontal,none,none,none
1c,12,100150,1,46,46,21,M,NA,variable,homogeneous,4,absent,0.854811906814575,1,vertical,vertical,1,1.05881783008575,green,1,NaN,919.715248510402,825.151636179026,NaN,NaN,919.715248510402,825.151636179026,1025.15163617903,480.284751489598,680.284751489598,374.848363820974,574.848363820974,719.715248510402,0,0,0,0,4,0,0,0,NaN,NaN,vertical,vertical,vertical,horizontal,none,none
1c,12,100150,1,47,47,21,M,NA,variable,homogeneous,6,absent,0.709740161895752,1,vertical,vertical,1,1.09411150932312,red,4,NaN,692.232343256122,368.891514305654,NaN,NaN,907.767656743878,831.108485694346,1054.0296480134,622.224714400653,946.261991269517,391.116228706307,692.232343256122,368.891514305654,545.970351986605,577.775285599347,653.738008730483,808.883771293693,0,0,0,4,0,0,horizontal,vertical,vertical,vertical,vertical,vertical
1c,12,100150,1,48,48,21,M,NA,variable,homogeneous,4,absent,0.850741863250732,1,horizontal,horizontal,1,0.917643113136291,red,4,NaN,551.535633479765,542.637481142314,NaN,NaN,742.637481142314,848.464366520235,1048.46436652023,657.362518857686,857.362518857686,351.535633479765,551.535633479765,542.637481142314,0,0,0,0,0,0,0,4,NaN,NaN,horizontal,vertical,vertical,horizontal,none,none
1c,12,100150,1,49,49,21,M,NA,variable,homogeneous,5,present,1.20393514633179,1,horizontal,horizontal,1,0.788232955932617,green,2,4,1052.5183575291,564.510859255183,574.848363820974,480.284751489598,911.784642431215,829.192481806288,1052.5183575291,564.510859255183,844.280285305067,348.874022981887,574.848363820974,480.284751489598,616.568350913644,777.137884467044,0,0,0,4,0,0,0,NaN,horizontal,horizontal,horizontal,horizontal,vertical,none
1c,12,100150,1,50,50,21,M,NA,variable,homogeneous,3,absent,0.8734130859375,1,vertical,vertical,1,0.670587358474731,green,1,NaN,804.450363641507,854.96116226488,NaN,NaN,804.450363641507,854.96116226488,1018.57766167904,468.665290897936,576.971974679454,476.373546837184,0,0,0,0,0,0,4,0,0,NaN,NaN,NaN,vertical,vertical,vertical,none,none,none
1c,12,100150,1,51,51,21,M,NA,variable,homogeneous,5,absent,1.36190104484558,1,vertical,vertical,1,0.741174716949463,green,3,NaN,973.909581815937,413.504806087112,NaN,NaN,768.923317431687,853.099268668537,1031.10848569435,707.767656743878,973.909581815937,413.504806087112,676.373546837184,376.971974679454,549.685068220846,648.656293821019,0,0,0,0,4,0,0,NaN,vertical,vertical,vertical,vertical,horizontal,none
1c,12,100150,1,52,52,21,M,NA,variable,homogeneous,5,absent,0.792557954788208,1,horizontal,horizontal,1,0.964701352119446,green,1,NaN,931.334709102064,818.577661679039,NaN,NaN,931.334709102064,818.577661679039,1048.46436652023,542.637481142314,822.224714400653,345.970351986605,565.271262369628,500.363562235235,632.704947607421,792.450942956807,0,0,4,0,0,0,0,NaN,horizontal,vertical,horizontal,horizontal,vertical,none
1c,12,100150,1,53,53,21,M,NA,variable,homogeneous,5,present,1.96955800056458,1,horizontal,horizontal,1,0.647058238983154,red,4,5,716.980120613425,358.892763222174,545.03883773512,604.450363641507,725.445215295702,843.857712770574,1008.88377129369,746.261991269517,1003.65205506206,446.537169096228,716.980120613425,358.892763222174,545.03883773512,604.450363641507,0,0,0,0,0,4,0,NaN,horizontal,horizontal,horizontal,horizontal,vertical,none
1c,12,100150,1,54,54,21,M,NA,variable,homogeneous,3,absent,1.12111902236938,1,horizontal,horizontal,1,0.6,red,1,NaN,1003.65205506206,753.462830903772,NaN,NaN,1003.65205506206,753.462830903772,831.076682568313,346.900731331463,565.271262369628,699.636437764765,0,0,0,0,0,0,4,0,0,NaN,NaN,NaN,horizontal,horizontal,horizontal,none,none,none
1c,12,100150,1,55,55,21,M,NA,variable,homogeneous,3,present,0.73577618598938,1,horizontal,horizontal,1,0.999995031356812,red,3,2,760.109211414741,348.13947314824,1038.06300875679,691.383827134052,601.827779828472,760.476699717708,1038.06300875679,691.383827134052,760.109211414741,348.13947314824,0,0,0,0,0,0,0,0,4,NaN,NaN,NaN,vertical,vertical,horizontal,none,none,none
1c,12,100150,1,56,56,21,M,NA,variable,homogeneous,4,absent,1.27272796630859,1,vertical,vertical,1,0.705881037712097,green,3,NaN,915.767577433584,372.793336331966,NaN,NaN,684.232422566416,827.206663668034,1027.20666366803,715.767577433584,915.767577433584,372.793336331966,572.793336331966,484.232422566416,0,0,0,0,0,0,4,0,NaN,NaN,vertical,horizontal,vertical,vertical,none,none
1c,12,100150,1,57,57,21,M,NA,variable,homogeneous,3,present,1.0158839225769,1,vertical,vertical,1,1.07058238983154,green,3,1,574.848363820974,719.715248510402,1016.25226451989,735.129412379467,1016.25226451989,735.129412379467,808.899371659138,345.155339110131,574.848363820974,719.715248510402,0,0,0,0,0,0,0,0,4,NaN,NaN,NaN,vertical,vertical,vertical,none,none,none
1c,12,100150,1,58,58,21,M,NA,variable,homogeneous,4,absent,0.733596086502075,1,vertical,vertical,1,0.858820314407349,red,4,NaN,588.595418998464,742.594190385041,NaN,NaN,942.594190385041,811.404581001536,1011.40458100154,457.40580961496,657.405809614959,388.595418998464,588.595418998464,742.594190385041,0,0,0,0,0,0,0,4,NaN,NaN,vertical,horizontal,vertical,vertical,none,none
1c,12,100150,1,59,59,21,M,NA,variable,homogeneous,4,present,0.779370784759521,1,horizontal,horizontal,1,0.941172232627869,red,1,3,751.343706178981,850.314931779154,848.656293821019,349.685068220846,751.343706178981,850.314931779154,1050.31493177915,648.656293821019,848.656293821019,349.685068220846,549.685068220846,551.343706178981,0,0,0,0,4,0,0,0,NaN,NaN,horizontal,vertical,horizontal,horizontal,none,none
1c,12,100150,1,60,60,21,M,NA,variable,homogeneous,5,absent,0.865009069442749,1,vertical,vertical,1,1.09411150932312,green,1,NaN,708.616172865948,838.063008756786,NaN,NaN,708.616172865948,838.063008756786,998.172220171528,760.476699717708,1013.86099482608,461.117046071168,734.001143498857,353.688914296288,545.349468637584,586.654331158049,0,0,4,0,0,0,0,NaN,vertical,horizontal,vertical,vertical,horizontal,none
1c,12,100150,1,61,61,21,M,NA,variable,homogeneous,3,present,0.972375869750977,1,vertical,vertical,1,0.717645597457886,green,2,3,1034.72873763037,699.636437764765,768.923317431687,346.900731331463,596.34794493794,753.462830903772,1034.72873763037,699.636437764765,768.923317431687,346.900731331463,0,0,0,0,0,0,0,4,0,NaN,NaN,NaN,vertical,vertical,horizontal,none,none,none
1c,12,100150,1,62,62,21,M,NA,variable,homogeneous,4,present,0.704166173934937,1,horizontal,horizontal,1,0.988230471611023,green,4,2,565.271262369628,699.636437764765,1034.72873763037,500.363562235235,899.636437764765,834.728737630372,1034.72873763037,500.363562235235,700.363562235235,365.271262369628,565.271262369628,699.636437764765,0,0,0,0,0,0,0,4,NaN,NaN,vertical,horizontal,horizontal,horizontal,none,none
1c,12,100150,1,63,63,21,M,NA,variable,homogeneous,3,absent,0.814640998840332,1,vertical,vertical,1,1.02352415084839,red,3,NaN,619.68777079743,419.68777079743,NaN,NaN,734.001143498857,846.311085703712,1046.31108570371,534.001143498857,619.68777079743,419.68777079743,0,0,0,0,0,0,0,0,4,NaN,NaN,NaN,vertical,vertical,vertical,none,none,none
1c,12,100150,1,64,64,21,M,NA,variable,homogeneous,6,present,1.46622109413147,1,vertical,vertical,1,0.941172232627869,green,4,1,927.5,379.163522034968,672.5,820.836477965032,672.5,820.836477965032,927.5,820.836477965032,1055,600,927.5,379.163522034968,672.5,379.163522034968,545,600,0,0,0,4,0,0,horizontal,vertical,horizontal,vertical,vertical,vertical
1c,12,100150,2,1,65,21,M,NA,variable,homogeneous,6,absent,1.03450608253479,1,horizontal,horizontal,1,0.729410157203674,red,6,NaN,574.848363820974,719.715248510402,NaN,NaN,791.100628340862,854.844660889869,1016.25226451989,735.129412379467,1025.15163617903,480.284751489598,808.899371659138,345.155339110131,583.747735480111,464.870587620533,574.848363820974,719.715248510402,0,0,0,0,0,4,vertical,vertical,vertical,vertical,horizontal,horizontal
1c,12,100150,2,2,66,21,M,NA,variable,homogeneous,6,present,0.84578800201416,1,vertical,vertical,1,0.917643113136291,red,5,1,548.874022981887,555.719714694933,887.215136548046,839.621618300407,887.215136548046,839.621618300407,1051.12597701811,644.280285305067,963.910840470068,404.658667004661,712.784863451954,360.378381699593,548.874022981887,555.719714694933,636.089159529932,795.341332995339,0,0,0,0,4,0,horizontal,vertical,horizontal,horizontal,vertical,vertical
1c,12,100150,2,3,67,21,M,NA,variable,homogeneous,4,present,1.31646490097046,1,vertical,vertical,1,0.670587358474731,green,3,4,942.594190385041,388.595418998464,588.595418998464,457.40580961496,657.405809614959,811.404581001536,1011.40458100154,742.594190385041,942.594190385041,388.595418998464,588.595418998464,457.40580961496,0,0,0,0,0,0,4,0,NaN,NaN,vertical,horizontal,vertical,horizontal,none,none
1c,12,100150,2,4,68,21,M,NA,variable,homogeneous,6,present,0.685899019241333,1,horizontal,horizontal,1,0.741174716949463,green,2,4,1048.46436652023,657.362518857686,725.445215295702,356.142287229426,874.554784704298,843.857712770574,1048.46436652023,657.362518857686,973.909581815937,413.504806087112,725.445215295702,356.142287229426,551.535633479765,542.637481142314,626.090418184063,786.495193912888,0,4,0,0,0,0,horizontal,horizontal,horizontal,horizontal,horizontal,vertical
1c,12,100150,2,5,69,21,M,NA,variable,homogeneous,6,absent,0.695850133895874,1,vertical,vertical,1,0.799997515678406,green,2,NaN,970.628304621509,789.501930496736,NaN,NaN,721.200666434388,842.519411655264,970.628304621509,789.501930496736,1049.42763818712,546.982518841471,878.799333565612,357.480588344736,629.371695378491,410.498069503264,550.57236181288,653.017481158529,0,4,0,0,0,0,vertical,vertical,vertical,horizontal,horizontal,horizontal
1c,12,100150,2,6,70,21,M,NA,variable,homogeneous,5,absent,0.879755020141602,1,horizontal,horizontal,1,0.694116477966309,green,1,NaN,942.594190385041,811.404581001536,NaN,NaN,942.594190385041,811.404581001536,1045.12173246427,529.712474266665,808.899371659138,345.155339110131,560.378381699593,512.784863451954,643.006323791957,800.942742169714,0,0,4,0,0,0,0,NaN,horizontal,horizontal,vertical,vertical,vertical,none
1c,12,100150,2,7,71,21,M,NA,variable,homogeneous,4,present,0.596595048904419,1,horizontal,horizontal,1,0.952936792373657,green,4,1,586.139005173917,738.882953928832,938.882953928832,813.860994826083,938.882953928832,813.860994826083,1013.86099482608,461.117046071168,661.117046071168,386.139005173917,586.139005173917,738.882953928832,0,0,0,0,0,0,0,4,NaN,NaN,horizontal,horizontal,vertical,horizontal,none,none
1c,12,100150,2,8,72,21,M,NA,variable,homogeneous,5,absent,0.634911060333252,1,horizontal,horizontal,1,0.705881037712097,red,5,NaN,550.57236181288,546.982518841471,NaN,NaN,672.5,820.836477965032,970.628304621509,789.501930496736,1032.95409169886,496.282156015671,773.345241866748,346.39691668109,550.57236181288,546.982518841471,0,0,0,0,0,0,4,NaN,vertical,horizontal,horizontal,vertical,horizontal,none
1c,12,100150,2,9,73,21,M,NA,variable,homogeneous,4,absent,0.749560832977295,1,horizontal,horizontal,1,1.09411150932312,green,4,NaN,607.549057043193,767.295052392579,NaN,NaN,967.295052392579,792.450942956807,992.450942956807,432.704947607421,632.704947607421,407.549057043193,607.549057043193,767.295052392579,0,0,0,0,0,0,0,4,NaN,NaN,vertical,horizontal,vertical,horizontal,none,none
1c,12,100150,2,10,74,21,M,NA,variable,homogeneous,5,present,0.721973896026611,1,vertical,vertical,1,0.858820314407349,green,2,1,1003.65205506206,753.462830903772,716.980120613425,841.107236777826,716.980120613425,841.107236777826,1003.65205506206,753.462830903772,1008.88377129369,453.738008730483,725.445215295702,356.142287229426,545.03883773512,595.549636358493,0,0,0,4,0,0,0,NaN,horizontal,vertical,vertical,horizontal,vertical,none
1c,12,100150,2,11,75,21,M,NA,variable,homogeneous,5,absent,0.742193937301636,1,vertical,vertical,1,0.882349433898926,green,3,NaN,883.019879386575,358.892763222174,NaN,NaN,874.554784704298,843.857712770574,1054.96116226488,604.450363641507,883.019879386575,358.892763222174,596.34794493794,446.537169096228,591.116228706307,746.261991269517,0,0,0,0,4,0,0,NaN,vertical,vertical,vertical,horizontal,vertical,none
1c,12,100150,2,12,76,21,M,NA,variable,homogeneous,4,present,1.11155080795288,1,horizontal,horizontal,1,0.717645597457886,red,2,3,992.450942956807,432.704947607421,632.704947607421,407.549057043193,967.295052392579,792.450942956807,992.450942956807,432.704947607421,632.704947607421,407.549057043193,607.549057043193,767.295052392579,0,0,0,0,0,4,0,0,NaN,NaN,vertical,horizontal,vertical,horizontal,none,none
1c,12,100150,2,13,77,21,M,NA,variable,homogeneous,5,present,1.02535891532898,1,horizontal,horizontal,1,0.776468396186829,green,4,3,586.139005173917,461.117046071168,865.998856501143,353.688914296288,891.383827134052,838.063008756786,1054.65053136242,586.654331158049,865.998856501143,353.688914296288,586.139005173917,461.117046071168,601.827779828472,760.476699717708,0,0,0,0,0,4,0,NaN,horizontal,horizontal,vertical,horizontal,vertical,none
1c,12,100150,2,14,78,21,M,NA,variable,homogeneous,6,absent,0.723520994186401,1,horizontal,horizontal,1,1.05881783008575,green,5,NaN,657.405809614959,388.595418998464,NaN,NaN,688.215357568785,829.192481806288,942.594190385041,811.404581001536,1054.37883281626,582.212099195248,911.784642431215,370.807518193712,657.405809614959,388.595418998464,545.621167183745,617.787900804752,0,0,0,0,4,0,horizontal,horizontal,vertical,horizontal,horizontal,vertical
1c,12,100150,2,15,79,21,M,NA,variable,homogeneous,3,present,0.67972207069397,1,horizontal,horizontal,1,0.882349433898926,green,2,3,1031.10848569435,707.767656743878,777.775285599347,345.970351986605,591.116228706307,746.261991269517,1031.10848569435,707.767656743878,777.775285599347,345.970351986605,0,0,0,0,0,0,0,4,0,NaN,NaN,NaN,vertical,horizontal,vertical,none,none,none
1c,12,100150,2,16,80,21,M,NA,variable,homogeneous,3,present,0.544293880462646,1,vertical,vertical,1,0.941172232627869,green,2,3,1054.37883281626,617.787900804752,688.215357568785,370.807518193712,657.405809614959,811.404581001536,1054.37883281626,617.787900804752,688.215357568785,370.807518193712,0,0,0,0,0,0,0,4,0,NaN,NaN,NaN,horizontal,vertical,vertical,none,none,none
1c,12,100150,2,17,81,21,M,NA,variable,homogeneous,4,absent,0.572532176971436,1,vertical,vertical,1,0.858820314407349,red,2,NaN,1029.19248180629,488.215357568785,NaN,NaN,911.784642431215,829.192481806288,1029.19248180629,488.215357568785,688.215357568785,370.807518193712,570.807518193712,711.784642431215,0,0,0,0,0,4,0,0,NaN,NaN,vertical,vertical,horizontal,horizontal,none,none
1c,12,100150,2,18,82,21,M,NA,variable,homogeneous,5,absent,0.545248985290527,1,vertical,vertical,1,0.858820314407349,red,3,NaN,923.626453162816,376.971974679454,NaN,NaN,831.076682568313,853.099268668537,1050.31493177915,648.656293821019,923.626453162816,376.971974679454,626.090418184063,413.504806087112,568.891514305654,707.767656743878,0,0,0,0,4,0,0,NaN,horizontal,horizontal,vertical,horizontal,horizontal,none
1c,12,100150,2,19,83,21,M,NA,variable,homogeneous,6,present,0.515459060668945,1,vertical,vertical,1,0.964701352119446,red,2,3,946.261991269517,808.883771293693,1054.0296480134,577.775285599347,692.232343256122,831.108485694346,946.261991269517,808.883771293693,1054.0296480134,577.775285599347,907.767656743878,368.891514305654,653.738008730483,391.116228706307,545.970351986605,622.224714400653,0,4,0,0,0,0,vertical,vertical,vertical,vertical,vertical,horizontal
1c,12,100150,2,20,84,21,M,NA,variable,homogeneous,5,present,0.444575786590576,1,vertical,vertical,1,0.92940767288208,red,2,5,1013.86099482608,738.882953928832,545.349468637584,613.345668841951,734.001143498857,846.311085703712,1013.86099482608,738.882953928832,998.172220171528,439.523300282291,708.616172865948,361.936991243214,545.349468637584,613.345668841951,0,0,0,4,0,0,0,NaN,horizontal,vertical,horizontal,horizontal,vertical,none
1c,12,100150,2,21,85,21,M,NA,variable,homogeneous,4,absent,0.519678831100464,1,horizontal,horizontal,1,1.09411150932312,red,1,NaN,980.31222920257,780.31222920257,NaN,NaN,980.31222920257,780.31222920257,980.31222920257,419.68777079743,619.68777079743,419.68777079743,619.68777079743,780.31222920257,0,0,0,0,4,0,0,0,NaN,NaN,horizontal,horizontal,horizontal,horizontal,none,none
1c,12,100150,2,22,86,21,M,NA,variable,homogeneous,3,present,0.664969921112061,1,horizontal,horizontal,1,0.941172232627869,green,3,1,616.568350913644,422.862115532956,738.309916622085,847.425410200379,738.309916622085,847.425410200379,1045.12173246427,529.712474266665,616.568350913644,422.862115532956,0,0,0,0,0,0,0,0,4,NaN,NaN,NaN,vertical,vertical,horizontal,none,none,none
1c,12,100150,2,23,87,21,M,NA,variable,homogeneous,4,absent,0.919559001922607,1,vertical,vertical,1,0.658822798728943,green,4,NaN,619.68777079743,419.68777079743,NaN,NaN,619.68777079743,780.31222920257,980.31222920257,780.31222920257,980.31222920257,419.68777079743,619.68777079743,419.68777079743,0,0,0,0,0,0,0,4,NaN,NaN,vertical,vertical,vertical,vertical,none,none
1c,12,100150,2,24,88,21,M,NA,variable,homogeneous,3,absent,0.858650207519531,1,vertical,vertical,1,0.811762075424194,red,1,NaN,817.787900804752,854.378832816255,NaN,NaN,817.787900804752,854.378832816255,1011.40458100154,457.40580961496,570.807518193712,488.215357568785,0,0,0,0,0,0,4,0,0,NaN,NaN,NaN,vertical,horizontal,horizontal,none,none,none
1c,12,100150,2,25,89,21,M,NA,variable,homogeneous,3,absent,0.958551168441772,1,horizontal,horizontal,1,0.741174716949463,red,1,NaN,1018.57766167904,731.334709102064,NaN,NaN,1018.57766167904,731.334709102064,804.450363641507,345.03883773512,576.971974679454,723.626453162816,0,0,0,0,0,0,4,0,0,NaN,NaN,NaN,horizontal,vertical,horizontal,none,none,none
1c,12,100150,2,26,90,21,M,NA,variable,homogeneous,6,absent,0.664253950119019,1,vertical,vertical,1,0.705881037712097,red,1,NaN,899.636437764765,834.728737630372,NaN,NaN,899.636437764765,834.728737630372,1053.09926866854,631.076682568313,953.462830903772,396.34794493794,700.363562235235,365.271262369628,546.900731331463,568.923317431687,646.537169096228,803.65205506206,4,0,0,0,0,0,vertical,horizontal,horizontal,vertical,vertical,vertical
1c,12,100150,2,27,91,21,M,NA,variable,homogeneous,5,present,0.78777289390564,1,horizontal,horizontal,1,0.694116477966309,red,4,5,572.793336331966,484.232422566416,619.68777079743,780.31222920257,915.767577433584,827.206663668034,1051.86052685176,560.109211414741,839.890788585259,348.13947314824,572.793336331966,484.232422566416,619.68777079743,780.31222920257,0,0,0,0,0,4,0,NaN,horizontal,vertical,horizontal,horizontal,vertical,none
1c,12,100150,2,28,92,21,M,NA,variable,homogeneous,4,present,0.629455089569092,1,vertical,vertical,1,0.894113993644714,red,3,4,973.909581815937,413.504806087112,613.504806087112,426.090418184063,626.090418184063,786.495193912888,986.495193912888,773.909581815937,973.909581815937,413.504806087112,613.504806087112,426.090418184063,0,0,0,0,0,0,4,0,NaN,NaN,vertical,horizontal,vertical,horizontal,none,none
1c,12,100150,2,29,93,21,M,NA,variable,homogeneous,6,absent,1.25868201255798,1,horizontal,horizontal,1,0.623529119491577,green,3,NaN,970.628304621509,410.498069503264,NaN,NaN,878.799333565612,842.519411655264,1049.42763818712,653.017481158529,970.628304621509,410.498069503264,721.200666434388,357.480588344736,550.57236181288,546.982518841471,629.371695378491,789.501930496736,0,0,4,0,0,0,vertical,vertical,horizontal,horizontal,horizontal,vertical
1c,12,100150,2,30,94,21,M,NA,variable,homogeneous,4,present,0.608047962188721,1,vertical,vertical,1,0.788232955932617,green,3,4,786.654331158049,345.349468637584,545.349468637584,613.345668841951,813.345668841951,854.650531362416,1054.65053136242,586.654331158049,786.654331158049,345.349468637584,545.349468637584,613.345668841951,0,0,0,0,0,0,4,0,NaN,NaN,horizontal,vertical,vertical,vertical,none,none
1c,12,100150,2,31,95,21,M,NA,variable,homogeneous,6,absent,0.470905065536499,1,vertical,vertical,1,0.741174716949463,red,4,NaN,791.100628340862,345.155339110131,NaN,NaN,808.899371659138,854.844660889869,1025.15163617903,719.715248510402,1016.25226451989,464.870587620533,791.100628340862,345.155339110131,574.848363820974,480.284751489598,583.747735480111,735.129412379467,0,0,0,4,0,0,horizontal,horizontal,horizontal,vertical,vertical,horizontal
1c,12,100150,2,32,96,21,M,NA,variable,homogeneous,3,absent,0.706732988357544,1,vertical,vertical,1,0.705881037712097,green,3,NaN,565.271262369628,699.636437764765,NaN,NaN,1003.65205506206,753.462830903772,831.076682568313,346.900731331463,565.271262369628,699.636437764765,0,0,0,0,0,0,0,0,4,NaN,NaN,NaN,vertical,vertical,vertical,none,none,none
1c,12,100150,2,33,97,21,M,NA,variable,homogeneous,4,absent,0.913057088851929,1,horizontal,horizontal,1,1.0117595911026,green,1,NaN,760.109211414741,851.86052685176,NaN,NaN,760.109211414741,851.86052685176,1051.86052685176,639.890788585259,839.890788585259,348.13947314824,548.13947314824,560.109211414741,0,0,0,0,4,0,0,0,NaN,NaN,horizontal,horizontal,vertical,horizontal,none,none
1c,12,100150,2,34,98,21,M,NA,variable,homogeneous,5,absent,0.726706027984619,1,vertical,vertical,1,0.741174716949463,green,4,NaN,586.139005173917,461.117046071168,NaN,NaN,891.383827134052,838.063008756786,1054.65053136242,586.654331158049,865.998856501143,353.688914296288,586.139005173917,461.117046071168,601.827779828472,760.476699717708,0,0,0,0,0,4,0,NaN,vertical,vertical,horizontal,vertical,horizontal,none
1c,12,100150,2,35,99,21,M,NA,variable,homogeneous,4,absent,0.72593879699707,0,horizontal,vertical,1,1.04705327033997,red,2,NaN,1020.83647796503,472.5,NaN,NaN,927.5,820.836477965032,1020.83647796503,472.5,672.5,379.163522034968,579.163522034968,727.5,0,0,0,0,0,4,0,0,NaN,NaN,vertical,horizontal,horizontal,vertical,none,none
1c,12,100150,2,36,100,21,M,NA,variable,homogeneous,3,absent,0.648780107498169,1,vertical,vertical,1,1.0117595911026,green,3,NaN,616.568350913644,422.862115532956,NaN,NaN,738.309916622085,847.425410200379,1045.12173246427,529.712474266665,616.568350913644,422.862115532956,0,0,0,0,0,0,0,0,4,NaN,NaN,NaN,vertical,horizontal,vertical,none,none,none
1c,12,100150,2,37,101,21,M,NA,variable,homogeneous,6,present,0.819427013397217,1,horizontal,horizontal,1,1.05881783008575,red,2,1,1054.84466088987,608.899371659138,919.715248510402,825.151636179026,919.715248510402,825.151636179026,1054.84466088987,608.899371659138,935.129412379467,383.747735480111,680.284751489598,374.848363820974,545.155339110131,591.100628340862,664.870587620533,816.252264519889,0,4,0,0,0,0,vertical,horizontal,horizontal,horizontal,horizontal,horizontal
1c,12,100150,2,38,102,21,M,NA,variable,homogeneous,3,absent,0.705132007598877,1,horizontal,horizontal,1,0.858820314407349,red,3,NaN,607.549057043193,432.704947607421,NaN,NaN,751.343706178981,850.314931779154,1041.10723677783,516.980120613425,607.549057043193,432.704947607421,0,0,0,0,0,0,0,0,4,NaN,NaN,NaN,vertical,vertical,horizontal,none,none,none
1c,12,100150,2,39,103,21,M,NA,variable,homogeneous,3,present,0.82137393951416,1,horizontal,horizontal,1,0.894113993644714,red,1,2,907.767656743878,831.108485694346,946.261991269517,391.116228706307,907.767656743878,831.108485694346,946.261991269517,391.116228706307,545.970351986605,577.775285599347,0,0,0,0,0,0,4,0,0,NaN,NaN,NaN,horizontal,horizontal,vertical,none,none,none
1c,12,100150,2,40,104,21,M,NA,variable,homogeneous,4,absent,0.683274030685425,1,vertical,vertical,1,1.05881783008575,green,3,NaN,622.862115532956,416.568350913644,NaN,NaN,977.137884467044,783.431649086356,983.431649086356,422.862115532956,622.862115532956,416.568350913644,616.568350913644,777.137884467044,0,0,0,0,0,0,4,0,NaN,NaN,vertical,vertical,vertical,vertical,none,none
1c,12,100150,2,41,105,21,M,NA,variable,homogeneous,3,present,0.771960973739624,1,horizontal,horizontal,1,0.752939276695251,red,1,2,870.287525733335,845.121732464271,977.137884467044,416.568350913644,870.287525733335,845.121732464271,977.137884467044,416.568350913644,552.574589799621,538.309916622085,0,0,0,0,0,0,4,0,0,NaN,NaN,NaN,horizontal,horizontal,horizontal,none,none,none
1c,12,100150,2,42,106,21,M,NA,variable,homogeneous,6,present,0.897601842880249,1,horizontal,horizontal,1,0.905878553390503,green,2,1,970.628304621509,789.501930496736,721.200666434388,842.519411655264,721.200666434388,842.519411655264,970.628304621509,789.501930496736,1049.42763818712,546.982518841471,878.799333565612,357.480588344736,629.371695378491,410.498069503264,550.57236181288,653.017481158529,0,4,0,0,0,0,horizontal,horizontal,vertical,horizontal,vertical,vertical
1c,12,100150,2,43,107,21,M,NA,variable,homogeneous,3,present,0.739341020584106,1,vertical,vertical,1,0.964701352119446,red,2,1,1051.12597701811,555.719714694933,712.784863451954,839.621618300407,712.784863451954,839.621618300407,1051.12597701811,555.719714694933,636.089159529932,404.658667004661,0,0,0,0,0,0,0,4,0,NaN,NaN,NaN,horizontal,vertical,vertical,none,none,none
1c,12,100150,2,44,108,21,M,NA,variable,homogeneous,3,absent,1.02057385444641,1,horizontal,horizontal,1,0.92940767288208,green,2,NaN,983.431649086356,422.862115532956,NaN,NaN,861.690083377915,847.425410200379,983.431649086356,422.862115532956,554.878267535729,529.712474266665,0,0,0,0,0,0,0,4,0,NaN,NaN,NaN,vertical,horizontal,vertical,none,none,none
1c,12,100150,2,45,109,21,M,NA,variable,homogeneous,5,present,1.07453608512878,1,horizontal,horizontal,1,0.858820314407349,red,2,1,1018.57766167904,731.334709102064,742.637481142314,848.464366520235,742.637481142314,848.464366520235,1018.57766167904,731.334709102064,992.450942956807,432.704947607421,700.363562235235,365.271262369628,545.970351986605,622.224714400653,0,0,0,4,0,0,0,NaN,horizontal,horizontal,horizontal,horizontal,horizontal,none
1c,12,100150,2,46,110,21,M,NA,variable,homogeneous,4,present,0.660102844238281,1,horizontal,horizontal,1,1.0117595911026,red,4,3,576.971974679454,476.373546837184,923.626453162816,376.971974679454,676.373546837184,823.028025320546,1023.02802532055,723.626453162816,923.626453162816,376.971974679454,576.971974679454,476.373546837184,0,0,0,0,0,0,0,4,NaN,NaN,vertical,vertical,vertical,horizontal,none,none
1c,12,100150,2,47,111,21,M,NA,variable,homogeneous,6,absent,0.827291011810303,1,horizontal,horizontal,1,0.68235191822052,red,4,NaN,915.767577433584,372.793336331966,NaN,NaN,684.232422566416,827.206663668034,938.882953928832,813.860994826083,1054.65053136242,586.654331158049,915.767577433584,372.793336331966,661.117046071168,386.139005173917,545.349468637584,613.345668841951,0,0,0,4,0,0,horizontal,vertical,vertical,horizontal,horizontal,horizontal
1c,12,100150,2,48,112,21,M,NA,variable,homogeneous,5,present,0.833688974380493,1,vertical,vertical,1,0.870584874153137,red,3,1,931.334709102064,381.422338320961,822.224714400653,854.029648013395,822.224714400653,854.029648013395,1048.46436652023,657.362518857686,931.334709102064,381.422338320961,632.704947607421,407.549057043193,565.271262369628,699.636437764765,0,0,0,0,4,0,0,NaN,vertical,vertical,vertical,vertical,horizontal,none
1c,12,100150,2,49,113,21,M,NA,variable,homogeneous,6,absent,0.757911920547485,1,vertical,vertical,1,0.6,green,5,NaN,545.970351986605,577.775285599347,NaN,NaN,907.767656743878,831.108485694346,1054.0296480134,622.224714400653,946.261991269517,391.116228706307,692.232343256122,368.891514305654,545.970351986605,577.775285599347,653.738008730483,808.883771293693,0,0,0,0,4,0,vertical,horizontal,horizontal,horizontal,vertical,vertical
1c,12,100150,2,50,114,21,M,NA,variable,homogeneous,3,absent,0.694742918014526,1,horizontal,horizontal,1,1.05881783008575,green,1,NaN,1008.88377129369,746.261991269517,NaN,NaN,1008.88377129369,746.261991269517,822.224714400653,345.970351986605,568.891514305654,707.767656743878,0,0,0,0,0,0,4,0,0,NaN,NaN,NaN,horizontal,vertical,horizontal,none,none,none
1c,12,100150,2,51,115,21,M,NA,variable,homogeneous,5,present,0.70088791847229,1,vertical,vertical,1,0.6,green,5,1,574.848363820974,719.715248510402,844.280285305067,851.125977018113,844.280285305067,851.125977018113,1052.5183575291,635.489140744817,911.784642431215,370.807518193712,616.568350913644,422.862115532956,574.848363820974,719.715248510402,0,0,0,0,0,0,4,NaN,vertical,horizontal,vertical,vertical,vertical,none
1c,12,100150,2,52,116,21,M,NA,variable,homogeneous,3,absent,1.0579309463501,1,vertical,vertical,1,0.729410157203674,red,2,NaN,963.910840470068,404.658667004661,NaN,NaN,887.215136548046,839.621618300407,963.910840470068,404.658667004661,548.874022981887,555.719714694933,0,0,0,0,0,0,0,4,0,NaN,NaN,NaN,horizontal,vertical,vertical,none,none,none
1c,12,100150,2,53,117,21,M,NA,variable,homogeneous,5,absent,0.684499979019165,1,horizontal,horizontal,1,0.870584874153137,red,4,NaN,661.117046071168,386.139005173917,NaN,NaN,786.654331158049,854.650531362416,1038.06300875679,691.383827134052,960.476699717708,401.827779828472,661.117046071168,386.139005173917,553.688914296288,665.998856501143,0,0,0,0,0,4,0,NaN,horizontal,horizontal,vertical,horizontal,vertical,none
1c,12,100150,2,54,118,21,M,NA,variable,homogeneous,5,absent,0.707091808319092,1,vertical,vertical,1,0.835291194915772,red,1,NaN,899.636437764765,834.728737630372,NaN,NaN,899.636437764765,834.728737630372,1054.0296480134,577.775285599347,857.362518857686,351.535633479765,581.422338320961,468.665290897936,607.549057043193,767.295052392579,0,0,4,0,0,0,0,NaN,vertical,horizontal,vertical,vertical,vertical,none
1c,12,100150,2,55,119,21,M,NA,variable,homogeneous,6,present,1.12275791168213,1,vertical,vertical,1,1.05881783008575,green,5,4,546.900731331463,568.923317431687,700.363562235235,365.271262369628,899.636437764765,834.728737630372,1053.09926866854,631.076682568313,953.462830903772,396.34794493794,700.363562235235,365.271262369628,546.900731331463,568.923317431687,646.537169096228,803.65205506206,0,0,0,0,4,0,vertical,vertical,horizontal,vertical,vertical,vertical
1c,12,100150,2,56,120,21,M,NA,variable,homogeneous,4,absent,0.534725189208984,1,vertical,vertical,1,0.658822798728943,red,1,NaN,895.524681321058,836.431882914531,NaN,NaN,895.524681321058,836.431882914531,1036.43188291453,504.475318678942,704.475318678942,363.568117085469,563.568117085469,695.524681321058,0,0,0,0,4,0,0,0,NaN,NaN,vertical,horizontal,horizontal,horizontal,none,none
1c,12,100150,2,57,121,21,M,NA,variable,homogeneous,5,present,0.820991992950439,1,horizontal,horizontal,1,0.788232955932617,green,5,1,546.900731331463,568.923317431687,692.232343256122,831.108485694346,692.232343256122,831.108485694346,986.495193912888,773.909581815937,1023.02802532055,476.373546837184,751.343706178981,349.685068220846,546.900731331463,568.923317431687,0,0,0,0,0,0,4,NaN,vertical,horizontal,horizontal,horizontal,horizontal,none
1c,12,100150,2,58,122,21,M,NA,variable,homogeneous,4,present,1.1748640537262,1,horizontal,horizontal,1,0.647058238983154,green,4,3,545.155339110131,608.899371659138,791.100628340862,345.155339110131,808.899371659138,854.844660889869,1054.84466088987,591.100628340862,791.100628340862,345.155339110131,545.155339110131,608.899371659138,0,0,0,0,0,0,0,4,NaN,NaN,horizontal,vertical,horizontal,horizontal,none,none
1c,12,100150,2,59,123,21,M,NA,variable,homogeneous,3,present,0.785076856613159,1,vertical,vertical,1,0.941172232627869,green,3,1,545.621167183745,617.787900804752,942.594190385041,811.404581001536,942.594190385041,811.404581001536,911.784642431215,370.807518193712,545.621167183745,617.787900804752,0,0,0,0,0,0,0,0,4,NaN,NaN,NaN,vertical,horizontal,vertical,none,none,none
1c,12,100150,2,60,124,21,M,NA,variable,homogeneous,3,present,0.652347087860107,1,vertical,vertical,1,0.976465911865234,red,2,1,1038.06300875679,508.616172865948,760.109211414741,851.86052685176,760.109211414741,851.86052685176,1038.06300875679,508.616172865948,601.827779828472,439.523300282291,0,0,0,0,0,0,0,4,0,NaN,NaN,NaN,vertical,vertical,horizontal,none,none,none
1c,12,100150,2,61,125,21,M,NA,variable,homogeneous,4,present,0.634533166885376,1,vertical,vertical,1,0.84705575466156,red,3,2,692.232343256122,368.891514305654,1031.10848569435,492.232343256122,907.767656743878,831.108485694346,1031.10848569435,492.232343256122,692.232343256122,368.891514305654,568.891514305654,707.767656743878,0,0,0,0,0,0,4,0,NaN,NaN,horizontal,horizontal,vertical,horizontal,none,none
1c,12,100150,2,62,126,21,M,NA,variable,homogeneous,5,absent,0.920742034912109,1,horizontal,horizontal,1,0.858820314407349,green,4,NaN,622.862115532956,416.568350913644,NaN,NaN,835.489140744817,852.518357529101,1051.12597701811,644.280285305067,919.715248510402,374.848363820974,622.862115532956,416.568350913644,570.807518193712,711.784642431215,0,0,0,0,0,4,0,NaN,horizontal,vertical,horizontal,horizontal,horizontal,none
1c,12,100150,2,63,127,21,M,NA,variable,homogeneous,6,present,1.07550287246704,1,horizontal,horizontal,1,0.611764559745789,red,3,1,1034.72873763037,500.363562235235,768.923317431687,853.099268668537,768.923317431687,853.099268668537,1003.65205506206,753.462830903772,1034.72873763037,500.363562235235,831.076682568313,346.900731331463,596.34794493794,446.537169096228,565.271262369628,699.636437764765,0,0,4,0,0,0,horizontal,vertical,horizontal,vertical,vertical,vertical
1c,12,100150,2,64,128,21,M,NA,variable,homogeneous,6,present,0.617739915847778,1,vertical,vertical,1,1.02352415084839,green,3,4,1020.83647796503,472.5,800,345,800,855,1020.83647796503,727.5,1020.83647796503,472.5,800,345,579.163522034968,472.5,579.163522034968,727.5,0,0,4,0,0,0,vertical,horizontal,vertical,horizontal,horizontal,vertical
1c,12,100150,3,1,129,21,M,NA,variable,homogeneous,6,present,1.45090007781982,1,vertical,vertical,1,0.729410157203674,red,1,4,853.017481158529,849.42763818712,746.982518841471,350.57236181288,853.017481158529,849.42763818712,1042.51941165526,678.799333565612,989.501930496736,429.371695378491,746.982518841471,350.57236181288,557.480588344736,521.200666434388,610.498069503264,770.628304621509,4,0,0,0,0,0,vertical,vertical,horizontal,horizontal,vertical,vertical
1c,12,100150,3,2,130,21,M,NA,variable,homogeneous,4,present,0.600589036941528,1,vertical,vertical,1,0.623529119491577,green,3,1,960.476699717708,401.827779828472,639.523300282292,798.172220171528,639.523300282292,798.172220171528,998.172220171528,760.476699717708,960.476699717708,401.827779828472,601.827779828472,439.523300282291,0,0,0,0,0,0,4,0,NaN,NaN,vertical,vertical,vertical,horizontal,none,none
1c,12,100150,3,3,131,21,M,NA,variable,homogeneous,6,absent,0.586020946502686,1,horizontal,horizontal,1,0.858820314407349,red,1,NaN,692.232343256122,831.108485694346,NaN,NaN,692.232343256122,831.108485694346,946.261991269517,808.883771293693,1054.0296480134,577.775285599347,907.767656743878,368.891514305654,653.738008730483,391.116228706307,545.970351986605,622.224714400653,4,0,0,0,0,0,horizontal,vertical,horizontal,vertical,vertical,vertical
1c,12,100150,3,4,132,21,M,NA,variable,homogeneous,5,present,1.22983193397522,1,vertical,vertical,1,0.799997515678406,green,2,4,1031.10848569435,707.767656743878,676.373546837184,376.971974679454,768.923317431687,853.099268668537,1031.10848569435,707.767656743878,973.909581815937,413.504806087112,676.373546837184,376.971974679454,549.685068220846,648.656293821019,0,0,0,4,0,0,0,NaN,horizontal,vertical,vertical,horizontal,horizontal,none
1c,12,100150,3,5,133,21,M,NA,variable,homogeneous,6,present,0.928237915039062,1,horizontal,horizontal,1,1.08234694957733,red,5,2,622.862115532956,416.568350913644,977.137884467044,783.431649086356,729.712474266665,845.121732464271,977.137884467044,783.431649086356,1047.42541020038,538.309916622085,870.287525733335,354.878267535729,622.862115532956,416.568350913644,552.574589799621,661.690083377915,0,0,0,0,4,0,vertical,horizontal,vertical,horizontal,horizontal,vertical
1c,12,100150,3,6,134,21,M,NA,variable,homogeneous,4,absent,1.46824622154236,1,vertical,vertical,1,0.647058238983154,green,4,NaN,552.574589799621,661.690083377915,NaN,NaN,861.690083377915,847.425410200379,1047.42541020038,538.309916622085,738.309916622085,352.574589799621,552.574589799621,661.690083377915,0,0,0,0,0,0,0,4,NaN,NaN,vertical,horizontal,vertical,vertical,none,none
1c,12,100150,3,7,135,21,M,NA,variable,homogeneous,5,present,0.828540802001953,1,horizontal,horizontal,1,0.752939276695251,green,1,4,768.923317431687,853.099268668537,676.373546837184,376.971974679454,768.923317431687,853.099268668537,1031.10848569435,707.767656743878,973.909581815937,413.504806087112,676.373546837184,376.971974679454,549.685068220846,648.656293821019,0,0,4,0,0,0,0,NaN,horizontal,horizontal,vertical,horizontal,vertical,none
1c,12,100150,3,8,136,21,M,NA,variable,homogeneous,3,present,0.699383020401001,1,horizontal,horizontal,1,0.894113993644714,red,2,1,1052.5183575291,635.489140744817,643.006323791957,800.942742169714,643.006323791957,800.942742169714,1052.5183575291,635.489140744817,704.475318678942,363.568117085469,0,0,0,0,0,0,0,4,0,NaN,NaN,NaN,horizontal,horizontal,vertical,none,none,none
1c,12,100150,3,9,137,21,M,NA,variable,homogeneous,5,present,0.518698930740356,1,vertical,vertical,1,1.05881783008575,green,5,4,552.574589799621,538.309916622085,782.212099195248,345.621167183745,664.870587620533,816.252264519889,963.910840470068,795.341332995339,1036.43188291453,504.475318678942,782.212099195248,345.621167183745,552.574589799621,538.309916622085,0,0,0,0,0,0,4,NaN,vertical,vertical,vertical,horizontal,vertical,none
1c,12,100150,3,10,138,21,M,NA,variable,homogeneous,4,absent,0.525060892105103,1,vertical,vertical,1,0.6,green,4,NaN,565.271262369628,500.363562235235,NaN,NaN,700.363562235235,834.728737630372,1034.72873763037,699.636437764765,899.636437764765,365.271262369628,565.271262369628,500.363562235235,0,0,0,0,0,0,0,4,NaN,NaN,horizontal,vertical,vertical,vertical,none,none
1c,12,100150,3,11,139,21,M,NA,variable,homogeneous,4,present,0.812251091003418,1,horizontal,horizontal,1,0.623529119491577,red,3,1,622.862115532956,416.568350913644,977.137884467044,783.431649086356,977.137884467044,783.431649086356,983.431649086356,422.862115532956,622.862115532956,416.568350913644,616.568350913644,777.137884467044,0,0,0,0,0,0,4,0,NaN,NaN,horizontal,horizontal,horizontal,vertical,none,none
1c,12,100150,3,12,140,21,M,NA,variable,homogeneous,5,absent,1.16147780418396,1,horizontal,horizontal,1,1.03528871059418,green,2,NaN,967.295052392579,792.450942956807,NaN,NaN,668.665290897936,818.577661679039,967.295052392579,792.450942956807,1034.72873763037,500.363562235235,777.775285599347,345.970351986605,551.535633479765,542.637481142314,0,0,0,4,0,0,0,NaN,vertical,horizontal,horizontal,horizontal,horizontal,none
1c,12,100150,3,13,141,21,M,NA,variable,homogeneous,6,absent,0.663140058517456,1,horizontal,horizontal,1,0.917643113136291,green,1,NaN,786.654331158049,854.650531362416,NaN,NaN,786.654331158049,854.650531362416,1013.86099482608,738.882953928832,1027.20666366803,484.232422566416,813.345668841951,345.349468637584,586.139005173917,461.117046071168,572.793336331966,715.767577433584,4,0,0,0,0,0,horizontal,horizontal,vertical,vertical,vertical,vertical
1c,12,100150,3,14,142,21,M,NA,variable,homogeneous,3,absent,0.857928991317749,1,vertical,vertical,1,0.670587358474731,green,2,NaN,1050.31493177915,648.656293821019,NaN,NaN,632.704947607421,792.450942956807,1050.31493177915,648.656293821019,716.980120613425,358.892763222174,0,0,0,0,0,0,0,4,0,NaN,NaN,NaN,vertical,vertical,horizontal,none,none,none
1c,12,100150,3,15,143,21,M,NA,variable,homogeneous,5,present,0.692095994949341,1,horizontal,horizontal,1,0.623529119491577,green,2,3,1018.57766167904,731.334709102064,992.450942956807,432.704947607421,742.637481142314,848.464366520235,1018.57766167904,731.334709102064,992.450942956807,432.704947607421,700.363562235235,365.271262369628,545.970351986605,622.224714400653,0,0,0,4,0,0,0,NaN,vertical,horizontal,horizontal,horizontal,horizontal,none
1c,12,100150,3,16,144,21,M,NA,variable,homogeneous,5,absent,0.811022996902466,1,vertical,vertical,1,1.05881783008575,green,4,NaN,653.738008730483,391.116228706307,NaN,NaN,795.549636358493,854.96116226488,1041.10723677783,683.019879386575,953.462830903772,396.34794493794,653.738008730483,391.116228706307,556.142287229426,674.554784704298,0,0,0,0,0,4,0,NaN,horizontal,horizontal,vertical,vertical,horizontal,none
1c,12,100150,3,17,145,21,M,NA,variable,homogeneous,6,present,0.735152006149292,1,vertical,vertical,1,0.964701352119446,green,2,4,927.5,820.836477965032,927.5,379.163522034968,672.5,820.836477965032,927.5,820.836477965032,1055,600,927.5,379.163522034968,672.5,379.163522034968,545,600,0,4,0,0,0,0,vertical,vertical,horizontal,vertical,horizontal,horizontal
1c,12,100150,3,18,146,21,M,NA,variable,homogeneous,5,present,0.748522996902466,1,horizontal,horizontal,1,0.941172232627869,red,2,4,956.993676208043,800.942742169714,791.100628340862,345.155339110131,657.405809614959,811.404581001536,956.993676208043,800.942742169714,1039.62161830041,512.784863451954,791.100628340862,345.155339110131,554.878267535729,529.712474266665,0,0,0,4,0,0,0,NaN,vertical,horizontal,vertical,vertical,vertical,none
1c,12,100150,3,19,147,21,M,NA,variable,homogeneous,6,present,0.509259939193726,1,horizontal,horizontal,1,0.670587358474731,red,1,4,835.489140744817,852.518357529101,764.510859255183,347.4816424709,835.489140744817,852.518357529101,1036.43188291453,695.524681321058,1000.94274216971,443.006323791957,764.510859255183,347.4816424709,563.568117085469,504.475318678942,599.057257830286,756.993676208043,4,0,0,0,0,0,horizontal,vertical,vertical,vertical,vertical,horizontal
1c,12,100150,3,20,148,21,M,NA,variable,homogeneous,4,present,0.683618068695068,1,vertical,vertical,1,0.811762075424194,red,1,4,895.524681321058,836.431882914531,563.568117085469,695.524681321058,895.524681321058,836.431882914531,1036.43188291453,504.475318678942,704.475318678942,363.568117085469,563.568117085469,695.524681321058,0,0,0,0,4,0,0,0,NaN,NaN,vertical,vertical,horizontal,horizontal,none,none
1c,12,100150,3,21,149,21,M,NA,variable,homogeneous,4,absent,1.12807106971741,1,horizontal,horizontal,1,0.717645597457886,red,2,NaN,1036.43188291453,504.475318678942,NaN,NaN,895.524681321058,836.431882914531,1036.43188291453,504.475318678942,704.475318678942,363.568117085469,563.568117085469,695.524681321058,0,0,0,0,0,4,0,0,NaN,NaN,horizontal,horizontal,vertical,vertical,none,none
1c,12,100150,3,22,150,21,M,NA,variable,homogeneous,5,present,0.578773021697998,1,vertical,vertical,1,0.799997515678406,red,4,5,755.719714694933,348.874022981887,547.481642470899,564.510859255183,688.215357568785,829.192481806288,983.431649086356,777.137884467044,1025.15163617903,480.284751489598,755.719714694933,348.874022981887,547.481642470899,564.510859255183,0,0,0,0,0,4,0,NaN,horizontal,horizontal,vertical,vertical,vertical,none
1c,12,100150,3,23,151,21,M,NA,variable,homogeneous,4,absent,0.611755132675171,1,vertical,vertical,1,1.05881783008575,red,3,NaN,729.712474266665,354.878267535729,NaN,NaN,870.287525733335,845.121732464271,1045.12173246427,529.712474266665,729.712474266665,354.878267535729,554.878267535729,670.287525733335,0,0,0,0,0,0,4,0,NaN,NaN,vertical,horizontal,vertical,vertical,none,none
1c,12,100150,3,24,152,21,M,NA,variable,homogeneous,3,present,0.587314128875732,1,vertical,vertical,1,0.952936792373657,red,2,1,848.656293821019,349.685068220846,992.450942956807,767.295052392579,992.450942956807,767.295052392579,848.656293821019,349.685068220846,558.892763222174,683.019879386575,0,0,0,0,0,0,0,4,0,NaN,NaN,NaN,vertical,vertical,vertical,none,none,none
1c,12,100150,3,25,153,21,M,NA,variable,homogeneous,4,absent,1.02646803855896,1,horizontal,horizontal,1,0.752939276695251,green,4,NaN,545.349468637584,586.654331158049,NaN,NaN,786.654331158049,854.650531362416,1054.65053136242,613.345668841951,813.345668841951,345.349468637584,545.349468637584,586.654331158049,0,0,0,0,0,0,0,4,NaN,NaN,horizontal,horizontal,vertical,horizontal,none,none
1c,12,100150,3,26,154,21,M,NA,variable,homogeneous,6,absent,0.904186010360718,1,horizontal,horizontal,1,0.84705575466156,green,1,NaN,684.232422566416,827.206663668034,NaN,NaN,684.232422566416,827.206663668034,938.882953928832,813.860994826083,1054.65053136242,586.654331158049,915.767577433584,372.793336331966,661.117046071168,386.139005173917,545.349468637584,613.345668841951,4,0,0,0,0,0,horizontal,vertical,horizontal,vertical,vertical,horizontal
1c,12,100150,3,27,155,21,M,NA,variable,homogeneous,4,absent,0.610940933227539,1,horizontal,horizontal,1,1.03528871059418,red,1,NaN,696.282156015671,832.954091698863,NaN,NaN,696.282156015671,832.954091698863,1032.95409169886,703.717843984329,903.717843984329,367.045908301137,567.045908301137,496.282156015671,0,0,0,0,4,0,0,0,NaN,NaN,horizontal,horizontal,vertical,vertical,none,none
1c,12,100150,3,28,156,21,M,NA,variable,homogeneous,6,absent,0.623957872390747,1,vertical,vertical,1,0.611764559745789,red,4,NaN,817.787900804752,345.621167183745,NaN,NaN,782.212099195248,854.378832816255,1011.40458100154,742.594190385041,1029.19248180629,488.215357568785,817.787900804752,345.621167183745,588.595418998464,457.40580961496,570.807518193712,711.784642431215,0,0,0,4,0,0,horizontal,vertical,vertical,vertical,vertical,horizontal
1c,12,100150,3,29,157,21,M,NA,variable,homogeneous,3,absent,0.523576974868774,1,vertical,vertical,1,0.952936792373657,red,3,NaN,646.537169096228,396.34794493794,NaN,NaN,700.363562235235,834.728737630372,1053.09926866854,568.923317431687,646.537169096228,396.34794493794,0,0,0,0,0,0,0,0,4,NaN,NaN,NaN,vertical,vertical,vertical,none,none,none
1c,12,100150,3,30,158,21,M,NA,variable,homogeneous,4,absent,0.70905590057373,1,horizontal,horizontal,1,0.741174716949463,green,1,NaN,619.68777079743,780.31222920257,NaN,NaN,619.68777079743,780.31222920257,980.31222920257,780.31222920257,980.31222920257,419.68777079743,619.68777079743,419.68777079743,0,0,0,0,4,0,0,0,NaN,NaN,horizontal,horizontal,horizontal,horizontal,none,none
1c,12,100150,3,31,159,21,M,NA,variable,homogeneous,3,absent,1.61263799667358,1,horizontal,horizontal,1,0.858820314407349,red,1,NaN,844.280285305067,851.125977018113,NaN,NaN,844.280285305067,851.125977018113,995.341332995339,436.089159529932,560.378381699593,512.784863451954,0,0,0,0,0,0,4,0,0,NaN,NaN,NaN,horizontal,horizontal,vertical,none,none,none
1c,12,100150,3,32,160,21,M,NA,variable,homogeneous,4,present,1.11468696594238,1,vertical,vertical,1,0.68235191822052,red,2,3,1054.37883281626,582.212099195248,782.212099195248,345.621167183745,817.787900804752,854.378832816255,1054.37883281626,582.212099195248,782.212099195248,345.621167183745,545.621167183745,617.787900804752,0,0,0,0,0,4,0,0,NaN,NaN,vertical,vertical,vertical,horizontal,none,none
1c,12,100150,3,33,161,21,M,NA,variable,homogeneous,5,absent,0.578778982162476,1,vertical,vertical,1,0.68235191822052,green,1,NaN,721.200666434388,842.519411655264,NaN,NaN,721.200666434388,842.519411655264,1006.29933356561,749.885239334581,1006.29933356561,450.114760665419,721.200666434388,357.480588344736,545,600,0,0,4,0,0,0,0,NaN,vertical,horizontal,horizontal,horizontal,vertical,none
1c,12,100150,3,34,162,21,M,NA,variable,homogeneous,5,absent,0.720368146896362,1,vertical,vertical,1,1.09411150932312,red,5,NaN,551.535633479765,657.362518857686,NaN,NaN,777.775285599347,854.029648013395,1034.72873763037,699.636437764765,967.295052392579,407.549057043193,668.665290897936,381.422338320961,551.535633479765,657.362518857686,0,0,0,0,0,0,4,NaN,vertical,horizontal,vertical,horizontal,vertical,none
1c,12,100150,3,35,163,21,M,NA,variable,homogeneous,4,present,0.64998197555542,1,horizontal,horizontal,1,0.941172232627869,green,2,1,1045.12173246427,670.287525733335,729.712474266665,845.121732464271,729.712474266665,845.121732464271,1045.12173246427,670.287525733335,870.287525733335,354.878267535729,554.878267535729,529.712474266665,0,0,0,0,0,4,0,0,NaN,NaN,horizontal,horizontal,horizontal,horizontal,none,none
1c,12,100150,3,36,164,21,M,NA,variable,homogeneous,6,present,0.930101871490479,1,horizontal,horizontal,1,0.741174716949463,green,4,2,738.309916622085,352.574589799621,1045.12173246427,670.287525733335,861.690083377915,847.425410200379,1045.12173246427,670.287525733335,983.431649086356,422.862115532956,738.309916622085,352.574589799621,554.878267535729,529.712474266665,616.568350913644,777.137884467044,0,0,0,4,0,0,horizontal,vertical,horizontal,horizontal,vertical,vertical
1c,12,100150,3,37,165,21,M,NA,variable,homogeneous,5,absent,0.640763998031616,1,horizontal,horizontal,1,0.788232955932617,red,4,NaN,764.510859255183,347.4816424709,NaN,NaN,680.284751489598,825.151636179026,977.137884467044,783.431649086356,1029.19248180629,488.215357568785,764.510859255183,347.4816424709,548.874022981887,555.719714694933,0,0,0,0,0,4,0,NaN,vertical,horizontal,horizontal,horizontal,vertical,none
1c,12,100150,3,38,166,21,M,NA,variable,homogeneous,3,absent,0.677211999893188,1,horizontal,horizontal,1,0.964701352119446,green,3,NaN,657.405809614959,388.595418998464,NaN,NaN,688.215357568785,829.192481806288,1054.37883281626,582.212099195248,657.405809614959,388.595418998464,0,0,0,0,0,0,0,0,4,NaN,NaN,NaN,horizontal,vertical,horizontal,none,none,none
1c,12,100150,3,39,167,21,M,NA,variable,homogeneous,5,present,0.61667013168335,1,horizontal,horizontal,1,0.705881037712097,red,4,2,561.936991243214,508.616172865948,1046.31108570371,534.001143498857,938.882953928832,813.860994826083,1046.31108570371,534.001143498857,813.345668841951,345.349468637584,561.936991243214,508.616172865948,639.523300282292,798.172220171528,0,0,0,0,0,4,0,NaN,vertical,vertical,horizontal,horizontal,horizontal,none
1c,12,100150,3,40,168,21,M,NA,variable,homogeneous,3,present,0.782042026519775,1,vertical,vertical,1,0.635293679237366,green,1,3,857.362518857686,848.464366520235,556.142287229426,525.445215295702,857.362518857686,848.464366520235,986.495193912888,426.090418184063,556.142287229426,525.445215295702,0,0,0,0,0,0,4,0,0,NaN,NaN,NaN,vertical,horizontal,vertical,none,none,none
1c,12,100150,3,41,169,21,M,NA,variable,homogeneous,3,present,0.843154191970825,1,vertical,vertical,1,1.07058238983154,red,3,2,567.045908301137,703.717843984329,826.654758133252,346.39691668109,1006.29933356561,749.885239334581,826.654758133252,346.39691668109,567.045908301137,703.717843984329,0,0,0,0,0,0,0,0,4,NaN,NaN,NaN,vertical,horizontal,vertical,none,none,none
1c,12,100150,3,42,170,21,M,NA,variable,homogeneous,6,absent,0.558396100997925,1,vertical,vertical,1,0.717645597457886,green,5,NaN,545.155339110131,591.100628340862,NaN,NaN,919.715248510402,825.151636179026,1054.84466088987,608.899371659138,935.129412379467,383.747735480111,680.284751489598,374.848363820974,545.155339110131,591.100628340862,664.870587620533,816.252264519889,0,0,0,0,4,0,horizontal,horizontal,vertical,horizontal,vertical,vertical
1c,12,100150,3,43,171,21,M,NA,variable,homogeneous,3,present,1.19614005088806,1,horizontal,horizontal,1,0.717645597457886,red,1,3,588.595418998464,742.594190385041,782.212099195248,345.621167183745,588.595418998464,742.594190385041,1029.19248180629,711.784642431215,782.212099195248,345.621167183745,0,0,0,0,0,0,4,0,0,NaN,NaN,NaN,horizontal,horizontal,vertical,none,none,none
1c,12,100150,3,44,172,21,M,NA,variable,homogeneous,5,absent,0.888398885726929,1,horizontal,horizontal,1,1.0117595911026,green,2,NaN,1018.57766167904,731.334709102064,NaN,NaN,742.637481142314,848.464366520235,1018.57766167904,731.334709102064,992.450942956807,432.704947607421,700.363562235235,365.271262369628,545.970351986605,622.224714400653,0,0,0,4,0,0,0,NaN,vertical,horizontal,horizontal,vertical,vertical,none
1c,12,100150,3,45,173,21,M,NA,variable,homogeneous,3,absent,0.725766897201538,1,vertical,vertical,1,0.964701352119446,green,2,NaN,883.019879386575,358.892763222174,NaN,NaN,967.295052392579,792.450942956807,883.019879386575,358.892763222174,549.685068220846,648.656293821019,0,0,0,0,0,0,0,4,0,NaN,NaN,NaN,vertical,vertical,horizontal,none,none,none
1c,12,100150,3,46,174,21,M,NA,variable,homogeneous,3,present,0.831137895584106,1,vertical,vertical,1,0.941172232627869,green,3,1,563.568117085469,504.475318678942,835.489140744817,852.518357529101,835.489140744817,852.518357529101,1000.94274216971,443.006323791957,563.568117085469,504.475318678942,0,0,0,0,0,0,0,0,4,NaN,NaN,NaN,vertical,horizontal,vertical,none,none,none
1c,12,100150,3,47,175,21,M,NA,variable,homogeneous,3,absent,0.68428897857666,1,horizontal,horizontal,1,1.02352415084839,red,3,NaN,712.784863451954,360.378381699593,NaN,NaN,636.089159529932,795.341332995339,1051.12597701811,644.280285305067,712.784863451954,360.378381699593,0,0,0,0,0,0,0,0,4,NaN,NaN,NaN,horizontal,horizontal,horizontal,none,none,none
1c,12,100150,3,48,176,21,M,NA,variable,homogeneous,3,present,0.530242919921875,1,horizontal,horizontal,1,1.0117595911026,green,2,3,1049.42763818712,653.017481158529,721.200666434388,357.480588344736,629.371695378491,789.501930496736,1049.42763818712,653.017481158529,721.200666434388,357.480588344736,0,0,0,0,0,0,0,4,0,NaN,NaN,NaN,vertical,horizontal,horizontal,none,none,none
1c,12,100150,3,49,177,21,M,NA,variable,homogeneous,6,present,0.711334943771362,1,vertical,vertical,1,0.894113993644714,green,3,1,983.431649086356,422.862115532956,861.690083377915,847.425410200379,861.690083377915,847.425410200379,1045.12173246427,670.287525733335,983.431649086356,422.862115532956,738.309916622085,352.574589799621,554.878267535729,529.712474266665,616.568350913644,777.137884467044,0,0,4,0,0,0,vertical,horizontal,vertical,horizontal,vertical,horizontal
1c,12,100150,3,50,178,21,M,NA,variable,homogeneous,6,absent,0.67237114906311,1,vertical,vertical,1,0.729410157203674,red,1,NaN,853.017481158529,849.42763818712,NaN,NaN,853.017481158529,849.42763818712,1042.51941165526,678.799333565612,989.501930496736,429.371695378491,746.982518841471,350.57236181288,557.480588344736,521.200666434388,610.498069503264,770.628304621509,4,0,0,0,0,0,vertical,horizontal,vertical,horizontal,vertical,vertical
1c,12,100150,3,51,179,21,M,NA,variable,homogeneous,5,present,0.646162033081055,1,vertical,vertical,1,0.799997515678406,red,5,4,548.13947314824,639.890788585259,684.232422566416,372.793336331966,760.109211414741,851.86052685176,1027.20666366803,715.767577433584,980.31222920257,419.68777079743,684.232422566416,372.793336331966,548.13947314824,639.890788585259,0,0,0,0,0,0,4,NaN,horizontal,horizontal,horizontal,horizontal,vertical,none
1c,12,100150,3,52,180,21,M,NA,variable,homogeneous,4,present,0.687482118606567,1,horizontal,horizontal,1,1.0117595911026,red,2,3,1045.12173246427,529.712474266665,729.712474266665,354.878267535729,870.287525733335,845.121732464271,1045.12173246427,529.712474266665,729.712474266665,354.878267535729,554.878267535729,670.287525733335,0,0,0,0,0,4,0,0,NaN,NaN,vertical,horizontal,vertical,vertical,none,none
1c,12,100150,3,53,181,21,M,NA,variable,homogeneous,3,present,0.713433980941772,1,horizontal,horizontal,1,0.799997515678406,green,2,1,899.636437764765,365.271262369628,953.462830903772,803.65205506206,953.462830903772,803.65205506206,899.636437764765,365.271262369628,546.900731331463,631.076682568313,0,0,0,0,0,0,0,4,0,NaN,NaN,NaN,horizontal,horizontal,horizontal,none,none,none
1c,12,100150,3,54,182,21,M,NA,variable,homogeneous,3,absent,0.728941917419434,1,vertical,vertical,1,1.05881783008575,red,3,NaN,613.504806087112,426.090418184063,NaN,NaN,742.637481142314,848.464366520235,1043.85771277057,525.445215295702,613.504806087112,426.090418184063,0,0,0,0,0,0,0,0,4,NaN,NaN,NaN,vertical,vertical,vertical,none,none,none
1c,12,100150,3,55,183,21,M,NA,variable,homogeneous,3,absent,0.861512899398804,1,horizontal,horizontal,1,0.694116477966309,green,3,NaN,708.616172865948,361.936991243214,NaN,NaN,639.523300282292,798.172220171528,1051.86052685176,639.890788585259,708.616172865948,361.936991243214,0,0,0,0,0,0,0,0,4,NaN,NaN,NaN,horizontal,horizontal,horizontal,none,none,none
1c,12,100150,3,56,184,21,M,NA,variable,homogeneous,6,absent,0.756695985794067,1,horizontal,horizontal,1,0.882349433898926,red,1,NaN,688.215357568785,829.192481806288,NaN,NaN,688.215357568785,829.192481806288,942.594190385041,811.404581001536,1054.37883281626,582.212099195248,911.784642431215,370.807518193712,657.405809614959,388.595418998464,545.621167183745,617.787900804752,4,0,0,0,0,0,horizontal,horizontal,horizontal,horizontal,horizontal,horizontal
1c,12,100150,3,57,185,21,M,NA,variable,homogeneous,6,absent,0.562843084335327,1,vertical,vertical,1,0.741174716949463,green,1,NaN,777.775285599347,854.029648013395,NaN,NaN,777.775285599347,854.029648013395,1008.88377129369,746.261991269517,1031.10848569435,492.232343256122,822.224714400653,345.970351986605,591.116228706307,453.738008730483,568.891514305654,707.767656743878,4,0,0,0,0,0,vertical,vertical,vertical,vertical,vertical,vertical
1c,12,100150,3,58,186,21,M,NA,variable,homogeneous,6,present,0.791204214096069,1,horizontal,horizontal,1,0.647058238983154,green,4,1,734.001143498857,353.688914296288,865.998856501143,846.311085703712,865.998856501143,846.311085703712,1046.31108570371,665.998856501143,980.31222920257,419.68777079743,734.001143498857,353.688914296288,553.688914296288,534.001143498857,619.68777079743,780.31222920257,0,0,0,4,0,0,vertical,vertical,horizontal,horizontal,horizontal,horizontal
1c,12,100150,3,59,187,21,M,NA,variable,homogeneous,4,absent,0.776569843292236,1,vertical,vertical,1,0.670587358474731,red,1,NaN,684.232422566416,827.206663668034,NaN,NaN,684.232422566416,827.206663668034,1027.20666366803,715.767577433584,915.767577433584,372.793336331966,572.793336331966,484.232422566416,0,0,0,0,4,0,0,0,NaN,NaN,vertical,vertical,horizontal,horizontal,none,none
1c,12,100150,3,60,188,21,M,NA,variable,homogeneous,4,present,1.13230800628662,1,horizontal,horizontal,1,0.6,green,3,4,664.870587620533,383.747735480111,583.747735480111,735.129412379467,935.129412379467,816.252264519889,1016.25226451989,464.870587620533,664.870587620533,383.747735480111,583.747735480111,735.129412379467,0,0,0,0,0,0,4,0,NaN,NaN,horizontal,vertical,horizontal,vertical,none,none
1c,12,100150,3,61,189,21,M,NA,variable,homogeneous,6,present,1.06647706031799,1,vertical,vertical,1,0.76470383644104,red,6,5,629.371695378491,789.501930496736,550.57236181288,546.982518841471,878.799333565612,842.519411655264,1049.42763818712,653.017481158529,970.628304621509,410.498069503264,721.200666434388,357.480588344736,550.57236181288,546.982518841471,629.371695378491,789.501930496736,0,0,0,0,0,4,horizontal,vertical,vertical,horizontal,horizontal,vertical
1c,12,100150,3,62,190,21,M,NA,variable,homogeneous,5,absent,0.966866970062256,1,horizontal,horizontal,1,0.741174716949463,red,5,NaN,548.13947314824,560.109211414741,NaN,NaN,684.232422566416,827.206663668034,980.31222920257,780.31222920257,1027.20666366803,484.232422566416,760.109211414741,348.13947314824,548.13947314824,560.109211414741,0,0,0,0,0,0,4,NaN,vertical,vertical,horizontal,vertical,horizontal,none
1c,12,100150,3,63,191,21,M,NA,variable,homogeneous,5,absent,1.07037782669067,1,vertical,vertical,1,0.6,red,1,NaN,672.5,820.836477965032,NaN,NaN,672.5,820.836477965032,970.628304621509,789.501930496736,1032.95409169886,496.282156015671,773.345241866748,346.39691668109,550.57236181288,546.982518841471,0,0,4,0,0,0,0,NaN,vertical,horizontal,vertical,horizontal,vertical,none
1c,12,100150,3,64,192,21,M,NA,variable,homogeneous,4,present,1.11372685432434,1,vertical,vertical,1,1.08234694957733,green,1,3,853.017481158529,849.42763818712,746.982518841471,350.57236181288,853.017481158529,849.42763818712,1049.42763818712,546.982518841471,746.982518841471,350.57236181288,550.57236181288,653.017481158529,0,0,0,0,4,0,0,0,NaN,NaN,vertical,horizontal,horizontal,horizontal,none,none
1c,12,100150,4,1,193,21,M,NA,variable,homogeneous,3,present,0.745548963546753,1,horizontal,horizontal,1,1.05881783008575,red,1,2,857.362518857686,848.464366520235,986.495193912888,426.090418184063,857.362518857686,848.464366520235,986.495193912888,426.090418184063,556.142287229426,525.445215295702,0,0,0,0,0,0,4,0,0,NaN,NaN,NaN,horizontal,horizontal,vertical,none,none,none
1c,12,100150,4,2,194,21,M,NA,variable,homogeneous,4,absent,0.628566980361938,1,vertical,vertical,1,0.788232955932617,green,3,NaN,643.006323791957,399.057257830286,NaN,NaN,956.993676208043,800.942742169714,1000.94274216971,443.006323791957,643.006323791957,399.057257830286,599.057257830286,756.993676208043,0,0,0,0,0,0,4,0,NaN,NaN,horizontal,horizontal,vertical,vertical,none,none
1c,12,100150,4,3,195,21,M,NA,variable,homogeneous,5,absent,0.903244972229004,1,vertical,vertical,1,0.705881037712097,red,2,NaN,1052.5183575291,564.510859255183,NaN,NaN,911.784642431215,829.192481806288,1052.5183575291,564.510859255183,844.280285305067,348.874022981887,574.848363820974,480.284751489598,616.568350913644,777.137884467044,0,0,0,4,0,0,0,NaN,vertical,vertical,vertical,vertical,horizontal,none
1c,12,100150,4,4,196,21,M,NA,variable,homogeneous,3,present,0.686128854751587,1,vertical,vertical,1,0.623529119491577,red,1,3,773.345241866748,853.60308331891,593.700666434388,450.114760665419,773.345241866748,853.60308331891,1032.95409169886,496.282156015671,593.700666434388,450.114760665419,0,0,0,0,0,0,4,0,0,NaN,NaN,NaN,vertical,horizontal,horizontal,none,none,none
1c,12,100150,4,5,197,21,M,NA,variable,homogeneous,4,absent,0.646680116653442,1,horizontal,horizontal,1,0.752939276695251,green,3,NaN,742.637481142314,351.535633479765,NaN,NaN,857.362518857686,848.464366520235,1048.46436652023,542.637481142314,742.637481142314,351.535633479765,551.535633479765,657.362518857686,0,0,0,0,0,0,4,0,NaN,NaN,horizontal,vertical,horizontal,vertical,none,none
1c,12,100150,4,6,198,21,M,NA,variable,homogeneous,5,absent,0.541501998901367,1,vertical,vertical,1,0.870584874153137,red,2,NaN,1054.96116226488,595.549636358493,NaN,NaN,883.019879386575,841.107236777826,1054.96116226488,595.549636358493,874.554784704298,356.142287229426,591.116228706307,453.738008730483,596.34794493794,753.462830903772,0,0,0,4,0,0,0,NaN,vertical,vertical,horizontal,vertical,vertical,none
1c,12,100150,4,7,199,21,M,NA,variable,homogeneous,3,absent,0.567946910858154,1,vertical,vertical,1,0.76470383644104,green,3,NaN,725.445215295702,356.142287229426,NaN,NaN,626.090418184063,786.495193912888,1048.46436652023,657.362518857686,725.445215295702,356.142287229426,0,0,0,0,0,0,0,0,4,NaN,NaN,NaN,horizontal,vertical,vertical,none,none,none
1c,12,100150,4,8,200,21,M,NA,variable,homogeneous,5,present,0.620239019393921,1,vertical,vertical,1,1.03528871059418,green,5,1,557.480588344736,521.200666434388,650.114760665419,806.299333565612,650.114760665419,806.299333565612,949.885239334581,806.299333565612,1042.51941165526,521.200666434388,800,345,557.480588344736,521.200666434388,0,0,0,0,0,0,4,NaN,horizontal,horizontal,vertical,horizontal,vertical,none
1c,12,100150,4,9,201,21,M,NA,variable,homogeneous,6,absent,0.918206930160522,1,horizontal,horizontal,1,0.870584874153137,green,4,NaN,831.076682568313,346.900731331463,NaN,NaN,768.923317431687,853.099268668537,1003.65205506206,753.462830903772,1034.72873763037,500.363562235235,831.076682568313,346.900731331463,596.34794493794,446.537169096228,565.271262369628,699.636437764765,0,0,0,4,0,0,vertical,horizontal,vertical,horizontal,vertical,vertical
1c,12,100150,4,10,202,21,M,NA,variable,homogeneous,6,absent,0.777013063430786,1,horizontal,horizontal,1,0.811762075424194,green,2,NaN,1006.29933356561,749.885239334581,NaN,NaN,773.345241866748,853.60308331891,1006.29933356561,749.885239334581,1032.95409169886,496.282156015671,826.654758133252,346.39691668109,593.700666434388,450.114760665419,567.045908301137,703.717843984329,0,4,0,0,0,0,vertical,horizontal,vertical,vertical,vertical,horizontal
1c,12,100150,4,11,203,21,M,NA,variable,homogeneous,3,absent,0.791636943817139,1,horizontal,horizontal,1,0.941172232627869,red,3,NaN,661.117046071168,386.139005173917,NaN,NaN,684.232422566416,827.206663668034,1054.65053136242,586.654331158049,661.117046071168,386.139005173917,0,0,0,0,0,0,0,0,4,NaN,NaN,NaN,horizontal,horizontal,horizontal,none,none,none
1c,12,100150,4,12,204,21,M,NA,variable,homogeneous,3,present,0.693786859512329,1,vertical,vertical,1,0.705881037712097,green,3,2,791.100628340862,345.155339110131,1025.15163617903,719.715248510402,583.747735480111,735.129412379467,1025.15163617903,719.715248510402,791.100628340862,345.155339110131,0,0,0,0,0,0,0,0,4,NaN,NaN,NaN,horizontal,horizontal,vertical,none,none,none
1c,12,100150,4,13,205,21,M,NA,variable,homogeneous,3,present,0.470407009124756,0,horizontal,vertical,1,0.717645597457886,green,2,3,1048.46436652023,657.362518857686,725.445215295702,356.142287229426,626.090418184063,786.495193912888,1048.46436652023,657.362518857686,725.445215295702,356.142287229426,0,0,0,0,0,0,0,4,0,NaN,NaN,NaN,vertical,horizontal,vertical,none,none,none
1c,12,100150,4,14,206,21,M,NA,variable,homogeneous,6,present,0.816118001937866,1,vertical,vertical,1,1.0117595911026,red,6,2,567.045908301137,703.717843984329,1006.29933356561,749.885239334581,773.345241866748,853.60308331891,1006.29933356561,749.885239334581,1032.95409169886,496.282156015671,826.654758133252,346.39691668109,593.700666434388,450.114760665419,567.045908301137,703.717843984329,0,0,0,0,0,4,horizontal,vertical,horizontal,horizontal,horizontal,vertical
1c,12,100150,4,15,207,21,M,NA,variable,homogeneous,6,absent,0.689646005630493,1,vertical,vertical,1,0.647058238983154,red,6,NaN,596.34794493794,753.462830903772,NaN,NaN,831.076682568313,853.099268668537,1034.72873763037,699.636437764765,1003.65205506206,446.537169096228,768.923317431687,346.900731331463,565.271262369628,500.363562235235,596.34794493794,753.462830903772,0,0,0,0,0,4,horizontal,vertical,vertical,vertical,horizontal,vertical
1c,12,100150,4,16,208,21,M,NA,variable,homogeneous,6,present,0.778568029403687,1,vertical,vertical,1,0.752939276695251,green,5,3,581.422338320961,468.665290897936,1023.02802532055,476.373546837184,795.549636358493,854.96116226488,1018.57766167904,731.334709102064,1023.02802532055,476.373546837184,804.450363641507,345.03883773512,581.422338320961,468.665290897936,576.971974679454,723.626453162816,0,0,0,0,4,0,horizontal,vertical,horizontal,horizontal,vertical,vertical
1c,12,100150,4,17,209,21,M,NA,variable,homogeneous,5,present,0.611737966537476,1,horizontal,horizontal,1,0.658822798728943,red,4,3,657.405809614959,388.595418998464,956.993676208043,399.057257830286,791.100628340862,854.844660889869,1039.62161830041,687.215136548046,956.993676208043,399.057257830286,657.405809614959,388.595418998464,554.878267535729,670.287525733335,0,0,0,0,0,4,0,NaN,horizontal,vertical,horizontal,horizontal,vertical,none
1c,12,100150,4,18,210,21,M,NA,variable,homogeneous,5,absent,0.914618015289307,1,horizontal,horizontal,1,0.92940767288208,red,4,NaN,692.232343256122,368.891514305654,NaN,NaN,751.343706178981,850.314931779154,1023.02802532055,723.626453162816,986.495193912888,426.090418184063,692.232343256122,368.891514305654,546.900731331463,631.076682568313,0,0,0,0,0,4,0,NaN,vertical,horizontal,vertical,horizontal,vertical,none
1c,12,100150,4,19,211,21,M,NA,variable,homogeneous,5,present,0.655971050262451,1,horizontal,horizontal,1,0.941172232627869,green,4,3,664.870587620533,383.747735480111,963.910840470068,404.658667004661,782.212099195248,854.378832816255,1036.43188291453,695.524681321058,963.910840470068,404.658667004661,664.870587620533,383.747735480111,552.574589799621,661.690083377915,0,0,0,0,0,4,0,NaN,vertical,horizontal,horizontal,horizontal,vertical,none
1c,12,100150,4,20,212,21,M,NA,variable,homogeneous,5,absent,0.815524101257324,1,horizontal,horizontal,1,0.717645597457886,green,1,NaN,911.784642431215,829.192481806288,NaN,NaN,911.784642431215,829.192481806288,1052.5183575291,564.510859255183,844.280285305067,348.874022981887,574.848363820974,480.284751489598,616.568350913644,777.137884467044,0,0,4,0,0,0,0,NaN,horizontal,horizontal,horizontal,vertical,horizontal,none
1c,12,100150,4,21,213,21,M,NA,variable,homogeneous,5,absent,0.657092809677124,1,horizontal,horizontal,1,1.04705327033997,green,5,NaN,545.349468637584,586.654331158049,NaN,NaN,708.616172865948,838.063008756786,998.172220171528,760.476699717708,1013.86099482608,461.117046071168,734.001143498857,353.688914296288,545.349468637584,586.654331158049,0,0,0,0,0,0,4,NaN,horizontal,horizontal,vertical,vertical,horizontal,none
1c,12,100150,4,22,214,21,M,NA,variable,homogeneous,6,absent,0.623201131820679,1,horizontal,horizontal,1,0.84705575466156,red,6,NaN,591.116228706307,746.261991269517,NaN,NaN,822.224714400653,854.029648013395,1031.10848569435,707.767656743878,1008.88377129369,453.738008730483,777.775285599347,345.970351986605,568.891514305654,492.232343256122,591.116228706307,746.261991269517,0,0,0,0,0,4,horizontal,horizontal,horizontal,vertical,horizontal,horizontal
1c,12,100150,4,23,215,21,M,NA,variable,homogeneous,4,absent,0.473587036132812,0,vertical,horizontal,1,1.08234694957733,red,3,NaN,721.200666434388,357.480588344736,NaN,NaN,878.799333565612,842.519411655264,1042.51941165526,521.200666434388,721.200666434388,357.480588344736,557.480588344736,678.799333565612,0,0,0,0,0,0,4,0,NaN,NaN,vertical,vertical,vertical,horizontal,none,none
1c,12,100150,4,24,216,21,M,NA,variable,homogeneous,3,present,0.941030979156494,1,vertical,vertical,1,1.08234694957733,green,3,2,746.982518841471,350.57236181288,1042.51941165526,678.799333565612,610.498069503264,770.628304621509,1042.51941165526,678.799333565612,746.982518841471,350.57236181288,0,0,0,0,0,0,0,0,4,NaN,NaN,NaN,vertical,horizontal,vertical,none,none,none
1c,12,100150,4,25,217,21,M,NA,variable,homogeneous,5,absent,0.492976903915405,1,vertical,vertical,1,1.04705327033997,green,2,NaN,1046.31108570371,534.001143498857,NaN,NaN,938.882953928832,813.860994826083,1046.31108570371,534.001143498857,813.345668841951,345.349468637584,561.936991243214,508.616172865948,639.523300282292,798.172220171528,0,0,0,4,0,0,0,NaN,vertical,vertical,vertical,vertical,vertical,none
1c,12,100150,4,26,218,21,M,NA,variable,homogeneous,6,present,1.02837896347046,1,horizontal,horizontal,1,1.08234694957733,red,5,4,607.549057043193,432.704947607421,848.656293821019,349.685068220846,751.343706178981,850.314931779154,992.450942956807,767.295052392579,1041.10723677783,516.980120613425,848.656293821019,349.685068220846,607.549057043193,432.704947607421,558.892763222174,683.019879386575,0,0,0,0,4,0,horizontal,horizontal,horizontal,horizontal,horizontal,vertical
1c,12,100150,4,27,219,21,M,NA,variable,homogeneous,5,present,0.743815898895264,1,vertical,vertical,1,0.92940767288208,red,5,4,550.57236181288,653.017481158529,672.5,379.163522034968,773.345241866748,853.60308331891,1032.95409169886,703.717843984329,970.628304621509,410.498069503264,672.5,379.163522034968,550.57236181288,653.017481158529,0,0,0,0,0,0,4,NaN,vertical,vertical,horizontal,horizontal,vertical,none
1c,12,100150,4,28,220,21,M,NA,variable,homogeneous,4,present,0.687973022460938,1,horizontal,horizontal,1,0.647058238983154,green,4,1,546.900731331463,631.076682568313,831.076682568313,853.099268668537,831.076682568313,853.099268668537,1053.09926866854,568.923317431687,768.923317431687,346.900731331463,546.900731331463,631.076682568313,0,0,0,0,0,0,0,4,NaN,NaN,horizontal,vertical,horizontal,horizontal,none,none
1c,12,100150,4,29,221,21,M,NA,variable,homogeneous,4,present,0.670464038848877,0,vertical,horizontal,1,1.03528871059418,green,4,1,548.874022981887,644.280285305067,844.280285305067,851.125977018113,844.280285305067,851.125977018113,1051.12597701811,555.719714694933,755.719714694933,348.874022981887,548.874022981887,644.280285305067,0,0,0,0,0,0,0,4,NaN,NaN,horizontal,vertical,vertical,vertical,none,none
1c,12,100150,4,30,222,21,M,NA,variable,homogeneous,4,absent,1.0658061504364,1,vertical,vertical,1,1.08234694957733,green,1,NaN,935.129412379467,816.252264519889,NaN,NaN,935.129412379467,816.252264519889,1016.25226451989,464.870587620533,664.870587620533,383.747735480111,583.747735480111,735.129412379467,0,0,0,0,4,0,0,0,NaN,NaN,vertical,vertical,horizontal,horizontal,none,none
1c,12,100150,4,31,223,21,M,NA,variable,homogeneous,4,absent,0.944372892379761,1,horizontal,horizontal,1,0.858820314407349,red,4,NaN,546.39691668109,626.654758133252,NaN,NaN,826.654758133252,853.60308331891,1053.60308331891,573.345241866748,773.345241866748,346.39691668109,546.39691668109,626.654758133252,0,0,0,0,0,0,0,4,NaN,NaN,vertical,horizontal,vertical,horizontal,none,none
1c,12,100150,4,32,224,21,M,NA,variable,homogeneous,5,absent,NaN,0,vertical,none,0,0.623529119491577,green,5,NaN,545.03883773512,604.450363641507,NaN,NaN,725.445215295702,843.857712770574,1008.88377129369,746.261991269517,1003.65205506206,446.537169096228,716.980120613425,358.892763222174,545.03883773512,604.450363641507,0,0,0,0,0,0,4,NaN,vertical,horizontal,vertical,vertical,vertical,none
1c,12,100150,4,33,225,21,M,NA,variable,homogeneous,3,absent,0.958874940872192,1,vertical,vertical,1,0.717645597457886,red,3,NaN,574.848363820974,480.284751489598,NaN,NaN,808.899371659138,854.844660889869,1016.25226451989,464.870587620533,574.848363820974,480.284751489598,0,0,0,0,0,0,0,0,4,NaN,NaN,NaN,vertical,horizontal,vertical,none,none,none
1c,12,100150,4,34,226,21,M,NA,variable,homogeneous,3,absent,0.634454011917114,1,vertical,vertical,1,1.02352415084839,red,1,NaN,596.34794493794,753.462830903772,NaN,NaN,596.34794493794,753.462830903772,1034.72873763037,699.636437764765,768.923317431687,346.900731331463,0,0,0,0,0,0,4,0,0,NaN,NaN,NaN,vertical,horizontal,vertical,none,none,none
1c,12,100150,4,35,227,21,M,NA,variable,homogeneous,3,absent,0.607598066329956,1,horizontal,horizontal,1,0.611764559745789,green,3,NaN,549.685068220846,648.656293821019,NaN,NaN,967.295052392579,792.450942956807,883.019879386575,358.892763222174,549.685068220846,648.656293821019,0,0,0,0,0,0,0,0,4,NaN,NaN,NaN,horizontal,horizontal,horizontal,none,none,none
1c,12,100150,4,36,228,21,M,NA,variable,homogeneous,6,absent,0.669354915618896,1,vertical,vertical,1,0.670587358474731,red,4,NaN,822.224714400653,345.970351986605,NaN,NaN,777.775285599347,854.029648013395,1008.88377129369,746.261991269517,1031.10848569435,492.232343256122,822.224714400653,345.970351986605,591.116228706307,453.738008730483,568.891514305654,707.767656743878,0,0,0,4,0,0,vertical,vertical,horizontal,vertical,horizontal,horizontal
1c,12,100150,4,37,229,21,M,NA,variable,homogeneous,4,present,1.29974317550659,1,horizontal,horizontal,1,1.03528871059418,red,2,1,1008.88377129369,453.738008730483,946.261991269517,808.883771293693,946.261991269517,808.883771293693,1008.88377129369,453.738008730483,653.738008730483,391.116228706307,591.116228706307,746.261991269517,0,0,0,0,0,4,0,0,NaN,NaN,vertical,horizontal,horizontal,horizontal,none,none
1c,12,100150,4,38,230,21,M,NA,variable,homogeneous,6,present,0.97927188873291,1,horizontal,horizontal,1,0.870584874153137,green,3,1,963.910840470068,404.658667004661,887.215136548046,839.621618300407,887.215136548046,839.621618300407,1051.12597701811,644.280285305067,963.910840470068,404.658667004661,712.784863451954,360.378381699593,548.874022981887,555.719714694933,636.089159529932,795.341332995339,0,0,4,0,0,0,horizontal,horizontal,horizontal,horizontal,vertical,horizontal
1c,12,100150,4,39,231,21,M,NA,variable,homogeneous,4,absent,0.684139013290405,1,horizontal,horizontal,1,0.858820314407349,green,4,NaN,558.892763222174,516.980120613425,NaN,NaN,716.980120613425,841.107236777826,1041.10723677783,683.019879386575,883.019879386575,358.892763222174,558.892763222174,516.980120613425,0,0,0,0,0,0,0,4,NaN,NaN,vertical,vertical,horizontal,horizontal,none,none
1c,12,100150,4,40,232,21,M,NA,variable,homogeneous,6,absent,0.688585042953491,1,vertical,vertical,1,0.917643113136291,green,3,NaN,1046.31108570371,534.001143498857,NaN,NaN,734.001143498857,846.311085703712,980.31222920257,780.31222920257,1046.31108570371,534.001143498857,865.998856501143,353.688914296288,619.68777079743,419.68777079743,553.688914296288,665.998856501143,0,0,4,0,0,0,horizontal,vertical,vertical,horizontal,vertical,vertical
1c,12,100150,4,41,233,21,M,NA,variable,homogeneous,4,present,0.624638080596924,1,vertical,vertical,1,0.905878553390503,green,4,1,583.747735480111,735.129412379467,935.129412379467,816.252264519889,935.129412379467,816.252264519889,1016.25226451989,464.870587620533,664.870587620533,383.747735480111,583.747735480111,735.129412379467,0,0,0,0,0,0,0,4,NaN,NaN,horizontal,vertical,horizontal,vertical,none,none
1c,12,100150,4,42,234,21,M,NA,variable,homogeneous,6,present,0.607571125030518,1,horizontal,horizontal,1,0.917643113136291,green,6,3,545.349468637584,613.345668841951,1054.65053136242,586.654331158049,684.232422566416,827.206663668034,938.882953928832,813.860994826083,1054.65053136242,586.654331158049,915.767577433584,372.793336331966,661.117046071168,386.139005173917,545.349468637584,613.345668841951,0,0,0,0,0,4,vertical,horizontal,horizontal,vertical,vertical,horizontal
1c,12,100150,4,43,235,21,M,NA,variable,homogeneous,5,present,0.799249172210693,1,vertical,vertical,1,0.76470383644104,red,4,5,795.549636358493,345.03883773512,556.142287229426,525.445215295702,653.738008730483,808.883771293693,953.462830903772,803.65205506206,1041.10723677783,516.980120613425,795.549636358493,345.03883773512,556.142287229426,525.445215295702,0,0,0,0,0,4,0,NaN,horizontal,vertical,vertical,vertical,vertical,none
1c,12,100150,4,44,236,21,M,NA,variable,homogeneous,4,present,0.602856874465942,1,vertical,vertical,1,0.776468396186829,red,4,1,567.045908301137,703.717843984329,903.717843984329,832.954091698863,903.717843984329,832.954091698863,1032.95409169886,496.282156015671,696.282156015671,367.045908301137,567.045908301137,703.717843984329,0,0,0,0,0,0,0,4,NaN,NaN,horizontal,horizontal,vertical,vertical,none,none
1c,12,100150,4,45,237,21,M,NA,variable,homogeneous,3,absent,0.592903137207031,1,horizontal,horizontal,1,0.694116477966309,green,3,NaN,725.445215295702,356.142287229426,NaN,NaN,626.090418184063,786.495193912888,1048.46436652023,657.362518857686,725.445215295702,356.142287229426,0,0,0,0,0,0,0,0,4,NaN,NaN,NaN,horizontal,horizontal,horizontal,none,none,none
1c,12,100150,4,46,238,21,M,NA,variable,homogeneous,4,present,0.847378969192505,0,horizontal,vertical,1,0.905878553390503,red,3,4,963.910840470068,404.658667004661,604.658667004661,436.089159529932,636.089159529932,795.341332995339,995.341332995339,763.910840470068,963.910840470068,404.658667004661,604.658667004661,436.089159529932,0,0,0,0,0,0,4,0,NaN,NaN,horizontal,vertical,horizontal,horizontal,none,none
1c,12,100150,4,47,239,21,M,NA,variable,homogeneous,3,absent,0.621296882629395,1,vertical,vertical,1,0.647058238983154,green,3,NaN,676.373546837184,376.971974679454,NaN,NaN,668.665290897936,818.577661679039,1054.96116226488,604.450363641507,676.373546837184,376.971974679454,0,0,0,0,0,0,0,0,4,NaN,NaN,NaN,horizontal,horizontal,vertical,none,none,none
1c,12,100150,4,48,240,21,M,NA,variable,homogeneous,4,absent,0.667023897171021,1,horizontal,horizontal,1,0.658822798728943,red,4,NaN,557.480588344736,678.799333565612,NaN,NaN,878.799333565612,842.519411655264,1042.51941165526,521.200666434388,721.200666434388,357.480588344736,557.480588344736,678.799333565612,0,0,0,0,0,0,0,4,NaN,NaN,vertical,vertical,vertical,horizontal,none,none
1c,12,100150,4,49,241,21,M,NA,variable,homogeneous,4,absent,0.910386800765991,1,vertical,vertical,1,0.894113993644714,red,3,NaN,844.280285305067,348.874022981887,NaN,NaN,755.719714694933,851.125977018113,1051.12597701811,644.280285305067,844.280285305067,348.874022981887,548.874022981887,555.719714694933,0,0,0,0,0,0,4,0,NaN,NaN,vertical,vertical,vertical,horizontal,none,none
1c,12,100150,4,50,242,21,M,NA,variable,homogeneous,5,present,0.857233047485352,1,horizontal,horizontal,1,1.02352415084839,green,3,2,874.554784704298,356.142287229426,1054.96116226488,595.549636358493,883.019879386575,841.107236777826,1054.96116226488,595.549636358493,874.554784704298,356.142287229426,591.116228706307,453.738008730483,596.34794493794,753.462830903772,0,0,0,0,4,0,0,NaN,horizontal,horizontal,horizontal,vertical,vertical,none
1c,12,100150,4,51,243,21,M,NA,variable,homogeneous,4,present,0.584275007247925,1,horizontal,horizontal,1,1.09411150932312,green,1,3,773.345241866748,853.60308331891,826.654758133252,346.39691668109,773.345241866748,853.60308331891,1053.60308331891,626.654758133252,826.654758133252,346.39691668109,546.39691668109,573.345241866748,0,0,0,0,4,0,0,0,NaN,NaN,horizontal,horizontal,horizontal,horizontal,none,none
1c,12,100150,4,52,244,21,M,NA,variable,homogeneous,6,present,0.529733896255493,1,vertical,vertical,1,1.08234694957733,green,2,1,1038.06300875679,691.383827134052,839.890788585259,851.86052685176,839.890788585259,851.86052685176,1038.06300875679,691.383827134052,998.172220171528,439.523300282291,760.109211414741,348.13947314824,561.936991243214,508.616172865948,601.827779828472,760.476699717708,0,4,0,0,0,0,vertical,vertical,horizontal,horizontal,horizontal,horizontal
