experiment,subject,uniqueID,block,trial,trial_cumulative,age,gender,color_cond_blocking,color_history,shape_type,set_size,distractor,rt,acc,target_orient,response_key,response_made,iti,target_color,target_item,distractor_item,target_X,target_Y,distractor_X,distractor_Y,item1_X,item1_Y,item2_X,item2_Y,item3_X,item3_Y,item4_X,item4_Y,item5_X,item5_Y,item6_X,item6_Y,item1_shape,item2_shape,item3_shape,item4_shape,item5_shape,item6_shape,item1_line,item2_line,item3_line,item4_line,item5_line,item6_line
1c,13,100152,1,1,1,19,F,NA,variable,homogeneous,4,absent,1.14603877067566,1,horizontal,horizontal,1,0.788232040405273,green,1,NaN,927.5,820.836477965032,NaN,NaN,927.5,820.836477965032,1020.83647796503,472.5,672.5,379.163522034968,579.163522034968,727.5,0,0,0,0,4,0,0,0,NaN,NaN,horizontal,vertical,horizontal,horizontal,none,none
1c,13,100152,1,2,2,19,F,NA,variable,homogeneous,5,present,1.01152396202087,0,horizontal,vertical,1,0.941170573234558,red,5,3,553.688914296288,665.998856501143,960.476699717708,401.827779828472,786.654331158049,854.650531362416,1038.06300875679,691.383827134052,960.476699717708,401.827779828472,661.117046071168,386.139005173917,553.688914296288,665.998856501143,0,0,0,0,0,0,4,NaN,horizontal,vertical,vertical,horizontal,horizontal,none
1c,13,100152,1,3,3,19,F,NA,variable,homogeneous,6,present,1.85270881652832,1,vertical,vertical,1,1.04705109596252,green,5,2,643.006323791957,399.057257830286,956.993676208043,800.942742169714,704.475318678942,836.431882914531,956.993676208043,800.942742169714,1052.5183575291,564.510859255183,895.524681321058,363.568117085469,643.006323791957,399.057257830286,547.481642470899,635.489140744817,0,0,0,0,4,0,horizontal,horizontal,vertical,vertical,vertical,vertical
1c,13,100152,1,4,4,19,F,NA,variable,homogeneous,4,present,1.07066202163696,1,horizontal,horizontal,1,1.03528659343719,green,4,3,549.685068220846,551.343706178981,848.656293821019,349.685068220846,751.343706178981,850.314931779154,1050.31493177915,648.656293821019,848.656293821019,349.685068220846,549.685068220846,551.343706178981,0,0,0,0,0,0,0,4,NaN,NaN,horizontal,vertical,horizontal,horizontal,none,none
1c,13,100152,1,5,5,19,F,NA,variable,homogeneous,6,absent,0.911526203155518,1,horizontal,horizontal,1,0.764703035354614,red,4,NaN,680.284751489598,374.848363820974,NaN,NaN,919.715248510402,825.151636179026,1054.84466088987,608.899371659138,935.129412379467,383.747735480111,680.284751489598,374.848363820974,545.155339110131,591.100628340862,664.870587620533,816.252264519889,0,0,0,4,0,0,horizontal,horizontal,horizontal,horizontal,vertical,horizontal
1c,13,100152,1,6,6,19,F,NA,variable,homogeneous,6,absent,0.764970064163208,1,horizontal,horizontal,1,0.941170573234558,green,6,NaN,546.39691668109,626.654758133252,NaN,NaN,696.282156015671,832.954091698863,949.885239334581,806.299333565612,1053.60308331891,573.345241866748,903.717843984329,367.045908301137,650.114760665419,393.700666434388,546.39691668109,626.654758133252,0,0,0,0,0,4,vertical,horizontal,horizontal,horizontal,horizontal,horizontal
1c,13,100152,1,7,7,19,F,NA,variable,homogeneous,4,present,1.05087518692017,1,vertical,vertical,1,0.929406070709228,red,2,3,1025.15163617903,719.715248510402,919.715248510402,374.848363820974,680.284751489598,825.151636179026,1025.15163617903,719.715248510402,919.715248510402,374.848363820974,574.848363820974,480.284751489598,0,0,0,0,0,4,0,0,NaN,NaN,vertical,vertical,horizontal,horizontal,none,none
1c,13,100152,1,8,8,19,F,NA,variable,homogeneous,5,absent,0.949700117111206,1,vertical,vertical,1,0.682351517677307,red,4,NaN,576.971974679454,476.373546837184,NaN,NaN,907.767656743878,831.108485694346,1053.09926866854,568.923317431687,848.656293821019,349.685068220846,576.971974679454,476.373546837184,613.504806087112,773.909581815937,0,0,0,0,0,4,0,NaN,vertical,horizontal,vertical,vertical,horizontal,none
1c,13,100152,1,9,9,19,F,NA,variable,homogeneous,5,absent,0.746921062469482,1,vertical,vertical,1,0.905877065658569,green,5,NaN,599.057257830286,756.993676208043,NaN,NaN,887.215136548046,839.621618300407,1054.84466088987,591.100628340862,870.287525733335,354.878267535729,588.595418998464,457.40580961496,599.057257830286,756.993676208043,0,0,0,0,0,0,4,NaN,vertical,vertical,horizontal,horizontal,vertical,none
1c,13,100152,1,10,10,19,F,NA,variable,homogeneous,5,present,0.662817001342773,1,horizontal,horizontal,1,0.835290050506592,green,5,3,574.848363820974,719.715248510402,911.784642431215,370.807518193712,844.280285305067,851.125977018113,1052.5183575291,635.489140744817,911.784642431215,370.807518193712,616.568350913644,422.862115532956,574.848363820974,719.715248510402,0,0,0,0,0,0,4,NaN,horizontal,vertical,vertical,horizontal,horizontal,none
1c,13,100152,1,11,11,19,F,NA,variable,homogeneous,5,absent,0.858152866363525,1,horizontal,horizontal,1,1.09410910606384,green,2,NaN,1032.95409169886,703.717843984329,NaN,NaN,773.345241866748,853.60308331891,1032.95409169886,703.717843984329,970.628304621509,410.498069503264,672.5,379.163522034968,550.57236181288,653.017481158529,0,0,0,4,0,0,0,NaN,horizontal,horizontal,vertical,vertical,vertical,none
1c,13,100152,1,12,12,19,F,NA,variable,homogeneous,3,present,1.43645000457764,1,vertical,vertical,1,0.847054553031921,red,2,3,822.224714400653,345.970351986605,568.891514305654,707.767656743878,1008.88377129369,746.261991269517,822.224714400653,345.970351986605,568.891514305654,707.767656743878,0,0,0,0,0,0,0,4,0,NaN,NaN,NaN,horizontal,vertical,horizontal,none,none,none
1c,13,100152,1,13,13,19,F,NA,variable,homogeneous,5,absent,1.09897112846375,1,vertical,vertical,1,0.88234806060791,red,3,NaN,1018.57766167904,468.665290897936,NaN,NaN,700.363562235235,834.728737630372,992.450942956807,767.295052392579,1018.57766167904,468.665290897936,742.637481142314,351.535633479765,545.970351986605,577.775285599347,0,0,0,0,4,0,0,NaN,horizontal,vertical,vertical,vertical,horizontal,none
1c,13,100152,1,14,14,19,F,NA,variable,homogeneous,3,absent,1.14543080329895,1,vertical,vertical,1,0.799996542930603,green,1,NaN,746.982518841471,849.42763818712,NaN,NaN,746.982518841471,849.42763818712,1042.51941165526,521.200666434388,610.498069503264,429.371695378491,0,0,0,0,0,0,4,0,0,NaN,NaN,NaN,vertical,horizontal,vertical,none,none,none
1c,13,100152,1,15,15,19,F,NA,variable,homogeneous,3,absent,0.653134107589722,1,horizontal,horizontal,1,0.835290050506592,green,1,NaN,696.282156015671,832.954091698863,NaN,NaN,696.282156015671,832.954091698863,1053.60308331891,573.345241866748,650.114760665419,393.700666434388,0,0,0,0,0,0,4,0,0,NaN,NaN,NaN,horizontal,vertical,vertical,none,none,none
1c,13,100152,1,16,16,19,F,NA,variable,homogeneous,3,absent,1.31508994102478,1,vertical,vertical,1,0.847054553031921,red,3,NaN,553.688914296288,534.001143498857,NaN,NaN,865.998856501143,846.311085703712,980.31222920257,419.68777079743,553.688914296288,534.001143498857,0,0,0,0,0,0,0,0,4,NaN,NaN,NaN,vertical,vertical,vertical,none,none,none
1c,13,100152,1,17,17,19,F,NA,variable,homogeneous,3,absent,0.844196081161499,1,horizontal,horizontal,1,0.729409527778625,red,2,NaN,813.345668841951,345.349468637584,NaN,NaN,1013.86099482608,738.882953928832,813.345668841951,345.349468637584,572.793336331966,715.767577433584,0,0,0,0,0,0,0,4,0,NaN,NaN,NaN,vertical,horizontal,horizontal,none,none,none
1c,13,100152,1,18,18,19,F,NA,variable,homogeneous,5,present,0.970389842987061,1,horizontal,horizontal,1,0.858819055557251,red,4,1,619.68777079743,419.68777079743,839.890788585259,851.86052685176,839.890788585259,851.86052685176,1051.86052685176,639.890788585259,915.767577433584,372.793336331966,619.68777079743,419.68777079743,572.793336331966,715.767577433584,0,0,0,0,0,4,0,NaN,horizontal,vertical,horizontal,horizontal,vertical,none
1c,13,100152,1,19,19,19,F,NA,variable,homogeneous,4,absent,0.890844821929932,1,vertical,vertical,1,0.647058010101318,green,2,NaN,1046.31108570371,665.998856501143,NaN,NaN,734.001143498857,846.311085703712,1046.31108570371,665.998856501143,865.998856501143,353.688914296288,553.688914296288,534.001143498857,0,0,0,0,0,4,0,0,NaN,NaN,vertical,vertical,vertical,vertical,none,none
1c,13,100152,1,20,20,19,F,NA,variable,homogeneous,3,present,0.684982061386108,1,vertical,vertical,1,1.02352209091187,green,2,3,1050.31493177915,648.656293821019,716.980120613425,358.892763222174,632.704947607421,792.450942956807,1050.31493177915,648.656293821019,716.980120613425,358.892763222174,0,0,0,0,0,0,0,4,0,NaN,NaN,NaN,horizontal,vertical,horizontal,none,none,none
1c,13,100152,1,21,21,19,F,NA,variable,homogeneous,4,absent,0.704984188079834,1,horizontal,horizontal,1,1.09410910606384,red,3,NaN,696.282156015671,367.045908301137,NaN,NaN,903.717843984329,832.954091698863,1032.95409169886,496.282156015671,696.282156015671,367.045908301137,567.045908301137,703.717843984329,0,0,0,0,0,0,4,0,NaN,NaN,vertical,vertical,horizontal,horizontal,none,none
1c,13,100152,1,22,22,19,F,NA,variable,homogeneous,4,present,0.847537994384766,1,vertical,vertical,1,1.01175758838654,green,1,2,903.717843984329,832.954091698863,1032.95409169886,496.282156015671,903.717843984329,832.954091698863,1032.95409169886,496.282156015671,696.282156015671,367.045908301137,567.045908301137,703.717843984329,0,0,0,0,4,0,0,0,NaN,NaN,vertical,horizontal,horizontal,vertical,none,none
1c,13,100152,1,23,23,19,F,NA,variable,homogeneous,6,present,0.736852169036865,1,horizontal,horizontal,1,1.01175758838654,green,5,4,616.568350913644,422.862115532956,861.690083377915,352.574589799621,738.309916622085,847.425410200379,983.431649086356,777.137884467044,1045.12173246427,529.712474266665,861.690083377915,352.574589799621,616.568350913644,422.862115532956,554.878267535729,670.287525733335,0,0,0,0,4,0,horizontal,horizontal,vertical,horizontal,horizontal,vertical
1c,13,100152,1,24,24,19,F,NA,variable,homogeneous,6,absent,0.785619020462036,1,vertical,vertical,1,0.88234806060791,red,4,NaN,734.001143498857,353.688914296288,NaN,NaN,865.998856501143,846.311085703712,1046.31108570371,665.998856501143,980.31222920257,419.68777079743,734.001143498857,353.688914296288,553.688914296288,534.001143498857,619.68777079743,780.31222920257,0,0,0,4,0,0,horizontal,vertical,vertical,vertical,horizontal,vertical
1c,13,100152,1,25,25,19,F,NA,variable,homogeneous,5,present,1.28399586677551,1,vertical,vertical,1,0.729409527778625,red,4,5,568.891514305654,492.232343256122,626.090418184063,786.495193912888,923.626453162816,823.028025320546,1050.31493177915,551.343706178981,831.076682568313,346.900731331463,568.891514305654,492.232343256122,626.090418184063,786.495193912888,0,0,0,0,0,4,0,NaN,vertical,vertical,vertical,vertical,vertical,none
1c,13,100152,1,26,26,19,F,NA,variable,homogeneous,6,absent,0.592981100082397,1,horizontal,horizontal,1,0.964699578285217,green,3,NaN,1032.95409169886,496.282156015671,NaN,NaN,773.345241866748,853.60308331891,1006.29933356561,749.885239334581,1032.95409169886,496.282156015671,826.654758133252,346.39691668109,593.700666434388,450.114760665419,567.045908301137,703.717843984329,0,0,4,0,0,0,vertical,horizontal,horizontal,vertical,horizontal,vertical
1c,13,100152,1,27,27,19,F,NA,variable,homogeneous,3,absent,1.05713295936584,1,vertical,vertical,1,0.799996542930603,green,1,NaN,923.626453162816,823.028025320546,NaN,NaN,923.626453162816,823.028025320546,931.334709102064,381.422338320961,545.03883773512,595.549636358493,0,0,0,0,0,0,4,0,0,NaN,NaN,NaN,vertical,vertical,vertical,none,none,none
1c,13,100152,1,28,28,19,F,NA,variable,homogeneous,5,present,1.27193212509155,1,vertical,vertical,1,0.87058355808258,green,1,4,692.232343256122,831.108485694346,751.343706178981,349.685068220846,692.232343256122,831.108485694346,986.495193912888,773.909581815937,1023.02802532055,476.373546837184,751.343706178981,349.685068220846,546.900731331463,568.923317431687,0,0,4,0,0,0,0,NaN,vertical,vertical,vertical,horizontal,horizontal,none
1c,13,100152,1,29,29,19,F,NA,variable,homogeneous,4,present,0.779766082763672,1,vertical,vertical,1,0.905877065658569,red,4,1,561.936991243214,691.383827134052,891.383827134052,838.063008756786,891.383827134052,838.063008756786,1038.06300875679,508.616172865948,708.616172865948,361.936991243214,561.936991243214,691.383827134052,0,0,0,0,0,0,0,4,NaN,NaN,vertical,vertical,horizontal,vertical,none,none
1c,13,100152,1,30,30,19,F,NA,variable,homogeneous,3,present,0.948255062103271,1,horizontal,horizontal,1,0.635293507575989,red,1,2,923.626453162816,823.028025320546,931.334709102064,381.422338320961,923.626453162816,823.028025320546,931.334709102064,381.422338320961,545.03883773512,595.549636358493,0,0,0,0,0,0,4,0,0,NaN,NaN,NaN,horizontal,horizontal,vertical,none,none,none
1c,13,100152,1,31,31,19,F,NA,variable,homogeneous,4,absent,0.629190921783447,1,vertical,vertical,1,0.694116020202637,red,3,NaN,911.784642431215,370.807518193712,NaN,NaN,688.215357568785,829.192481806288,1029.19248180629,711.784642431215,911.784642431215,370.807518193712,570.807518193712,488.215357568785,0,0,0,0,0,0,4,0,NaN,NaN,vertical,vertical,vertical,horizontal,none,none
1c,13,100152,1,32,32,19,F,NA,variable,homogeneous,5,absent,0.793442010879517,1,horizontal,horizontal,1,0.976464080810547,green,1,NaN,650.114760665419,806.299333565612,NaN,NaN,650.114760665419,806.299333565612,949.885239334581,806.299333565612,1042.51941165526,521.200666434388,800,345,557.480588344736,521.200666434388,0,0,4,0,0,0,0,NaN,horizontal,horizontal,horizontal,vertical,vertical,none
1c,13,100152,1,33,33,19,F,NA,variable,homogeneous,4,absent,0.967048168182373,1,vertical,vertical,1,0.682351517677307,green,1,NaN,800,855,NaN,NaN,800,855,1055,600,800,345,545,600,0,0,0,0,4,0,0,0,NaN,NaN,vertical,horizontal,horizontal,vertical,none,none
1c,13,100152,1,34,34,19,F,NA,variable,homogeneous,6,absent,1.12761402130127,1,vertical,vertical,1,1.04705109596252,green,4,NaN,672.5,379.163522034968,NaN,NaN,927.5,820.836477965032,1055,600,927.5,379.163522034968,672.5,379.163522034968,545,600,672.5,820.836477965032,0,0,0,4,0,0,horizontal,horizontal,vertical,vertical,horizontal,vertical
1c,13,100152,1,35,35,19,F,NA,variable,homogeneous,4,absent,0.663668870925903,1,horizontal,horizontal,1,0.670587015151977,green,3,NaN,632.704947607421,407.549057043193,NaN,NaN,967.295052392579,792.450942956807,992.450942956807,432.704947607421,632.704947607421,407.549057043193,607.549057043193,767.295052392579,0,0,0,0,0,0,4,0,NaN,NaN,vertical,horizontal,horizontal,horizontal,none,none
1c,13,100152,1,36,36,19,F,NA,variable,homogeneous,6,absent,1.00670194625854,1,vertical,vertical,1,1.08234460353851,green,1,NaN,734.001143498857,846.311085703712,NaN,NaN,734.001143498857,846.311085703712,980.31222920257,780.31222920257,1046.31108570371,534.001143498857,865.998856501143,353.688914296288,619.68777079743,419.68777079743,553.688914296288,665.998856501143,4,0,0,0,0,0,vertical,horizontal,horizontal,vertical,vertical,vertical
1c,13,100152,1,37,37,19,F,NA,variable,homogeneous,5,present,0.967748880386353,1,horizontal,horizontal,1,1.03528659343719,green,4,2,777.775285599347,345.970351986605,967.295052392579,792.450942956807,668.665290897936,818.577661679039,967.295052392579,792.450942956807,1034.72873763037,500.363562235235,777.775285599347,345.970351986605,551.535633479765,542.637481142314,0,0,0,0,0,4,0,NaN,horizontal,vertical,horizontal,horizontal,horizontal,none
1c,13,100152,1,38,38,19,F,NA,variable,homogeneous,3,present,0.96150803565979,1,horizontal,horizontal,1,0.717645025253296,red,3,2,563.568117085469,504.475318678942,1000.94274216971,443.006323791957,835.489140744817,852.518357529101,1000.94274216971,443.006323791957,563.568117085469,504.475318678942,0,0,0,0,0,0,0,0,4,NaN,NaN,NaN,vertical,horizontal,horizontal,none,none,none
1c,13,100152,1,39,39,19,F,NA,variable,homogeneous,5,present,1.14924716949463,1,vertical,vertical,1,0.823525547981262,red,1,3,883.019879386575,841.107236777826,874.554784704298,356.142287229426,883.019879386575,841.107236777826,1054.96116226488,595.549636358493,874.554784704298,356.142287229426,591.116228706307,453.738008730483,596.34794493794,753.462830903772,0,0,4,0,0,0,0,NaN,vertical,horizontal,vertical,horizontal,vertical,none
1c,13,100152,1,40,40,19,F,NA,variable,homogeneous,3,present,0.717365980148315,1,horizontal,horizontal,1,0.647058010101318,green,3,1,567.045908301137,703.717843984329,1006.29933356561,749.885239334581,1006.29933356561,749.885239334581,826.654758133252,346.39691668109,567.045908301137,703.717843984329,0,0,0,0,0,0,0,0,4,NaN,NaN,NaN,horizontal,vertical,horizontal,none,none,none
1c,13,100152,1,41,41,19,F,NA,variable,homogeneous,4,present,0.889982938766479,1,horizontal,horizontal,1,0.905877065658569,red,4,3,546.900731331463,568.923317431687,831.076682568313,346.900731331463,768.923317431687,853.099268668537,1053.09926866854,631.076682568313,831.076682568313,346.900731331463,546.900731331463,568.923317431687,0,0,0,0,0,0,0,4,NaN,NaN,vertical,horizontal,horizontal,horizontal,none,none
1c,13,100152,1,42,42,19,F,NA,variable,homogeneous,6,present,0.760684967041016,1,horizontal,horizontal,1,1.03528659343719,green,1,2,712.784863451954,839.621618300407,963.910840470068,795.341332995339,712.784863451954,839.621618300407,963.910840470068,795.341332995339,1051.12597701811,555.719714694933,887.215136548046,360.378381699593,636.089159529932,404.658667004661,548.874022981887,644.280285305067,4,0,0,0,0,0,horizontal,horizontal,vertical,horizontal,vertical,vertical
1c,13,100152,1,43,43,19,F,NA,variable,homogeneous,4,present,0.739974975585938,1,horizontal,horizontal,1,0.799996542930603,red,4,3,596.34794493794,446.537169096228,953.462830903772,396.34794493794,646.537169096228,803.65205506206,1003.65205506206,753.462830903772,953.462830903772,396.34794493794,596.34794493794,446.537169096228,0,0,0,0,0,0,0,4,NaN,NaN,vertical,horizontal,horizontal,horizontal,none,none
1c,13,100152,1,44,44,19,F,NA,variable,homogeneous,4,absent,0.747677803039551,1,horizontal,horizontal,1,0.623529005050659,red,2,NaN,1053.60308331891,626.654758133252,NaN,NaN,773.345241866748,853.60308331891,1053.60308331891,626.654758133252,826.654758133252,346.39691668109,546.39691668109,573.345241866748,0,0,0,0,0,4,0,0,NaN,NaN,horizontal,horizontal,horizontal,horizontal,none,none
1c,13,100152,1,45,45,19,F,NA,variable,homogeneous,4,absent,0.836729049682617,1,vertical,vertical,1,0.89411256313324,red,1,NaN,857.362518857686,848.464366520235,NaN,NaN,857.362518857686,848.464366520235,1048.46436652023,542.637481142314,742.637481142314,351.535633479765,551.535633479765,657.362518857686,0,0,0,0,4,0,0,0,NaN,NaN,vertical,horizontal,vertical,vertical,none,none
1c,13,100152,1,46,46,19,F,NA,variable,homogeneous,5,present,1.00264382362366,1,vertical,vertical,1,1.05881559848785,green,2,4,1039.62161830041,687.215136548046,657.405809614959,388.595418998464,791.100628340862,854.844660889869,1039.62161830041,687.215136548046,956.993676208043,399.057257830286,657.405809614959,388.595418998464,554.878267535729,670.287525733335,0,0,0,4,0,0,0,NaN,vertical,vertical,horizontal,horizontal,vertical,none
1c,13,100152,1,47,47,19,F,NA,variable,homogeneous,6,present,0.900788068771362,1,vertical,vertical,1,1.08234460353851,red,2,1,995.341332995339,763.910840470068,755.719714694933,851.125977018113,755.719714694933,851.125977018113,995.341332995339,763.910840470068,1039.62161830041,512.784863451954,844.280285305067,348.874022981887,604.658667004661,436.089159529932,560.378381699593,687.215136548046,0,4,0,0,0,0,vertical,vertical,horizontal,horizontal,horizontal,horizontal
1c,13,100152,1,48,48,19,F,NA,variable,homogeneous,5,absent,0.812319040298462,1,horizontal,horizontal,1,0.670587015151977,red,2,NaN,980.31222920257,780.31222920257,NaN,NaN,684.232422566416,827.206663668034,980.31222920257,780.31222920257,1027.20666366803,484.232422566416,760.109211414741,348.13947314824,548.13947314824,560.109211414741,0,0,0,4,0,0,0,NaN,horizontal,horizontal,horizontal,horizontal,horizontal,none
1c,13,100152,1,49,49,19,F,NA,variable,homogeneous,6,present,1.16504907608032,1,vertical,vertical,1,1.02352209091187,red,6,4,546.39691668109,626.654758133252,903.717843984329,367.045908301137,696.282156015671,832.954091698863,949.885239334581,806.299333565612,1053.60308331891,573.345241866748,903.717843984329,367.045908301137,650.114760665419,393.700666434388,546.39691668109,626.654758133252,0,0,0,0,0,4,vertical,vertical,vertical,vertical,vertical,vertical
1c,13,100152,1,50,50,19,F,NA,variable,homogeneous,5,absent,0.598351955413818,1,horizontal,horizontal,1,0.670587015151977,red,5,NaN,558.892763222174,683.019879386575,NaN,NaN,804.450363641507,854.96116226488,1043.85771277057,674.554784704298,946.261991269517,391.116228706307,646.537169096228,396.34794493794,558.892763222174,683.019879386575,0,0,0,0,0,0,4,NaN,vertical,horizontal,horizontal,vertical,horizontal,none
1c,13,100152,1,51,51,19,F,NA,variable,homogeneous,6,present,0.678525924682617,1,horizontal,horizontal,1,0.799996542930603,red,5,1,601.827779828472,439.523300282291,760.109211414741,851.86052685176,760.109211414741,851.86052685176,998.172220171528,760.476699717708,1038.06300875679,508.616172865948,839.890788585259,348.13947314824,601.827779828472,439.523300282291,561.936991243214,691.383827134052,0,0,0,0,4,0,vertical,horizontal,vertical,horizontal,horizontal,vertical
1c,13,100152,1,52,52,19,F,NA,variable,homogeneous,5,absent,0.595530986785889,1,vertical,vertical,1,0.976464080810547,green,3,NaN,831.076682568313,346.900731331463,NaN,NaN,923.626453162816,823.028025320546,1050.31493177915,551.343706178981,831.076682568313,346.900731331463,568.891514305654,492.232343256122,626.090418184063,786.495193912888,0,0,0,0,4,0,0,NaN,horizontal,vertical,vertical,horizontal,vertical,none
1c,13,100152,1,53,53,19,F,NA,variable,homogeneous,3,absent,0.657078981399536,1,horizontal,horizontal,1,0.88234806060791,red,1,NaN,653.738008730483,808.883771293693,NaN,NaN,653.738008730483,808.883771293693,1054.0296480134,622.224714400653,692.232343256122,368.891514305654,0,0,0,0,0,0,4,0,0,NaN,NaN,NaN,horizontal,horizontal,vertical,none,none,none
1c,13,100152,1,54,54,19,F,NA,variable,homogeneous,3,present,0.702264785766602,1,vertical,vertical,1,0.999993085861206,green,2,1,887.215136548046,360.378381699593,963.910840470068,795.341332995339,963.910840470068,795.341332995339,887.215136548046,360.378381699593,548.874022981887,644.280285305067,0,0,0,0,0,0,0,4,0,NaN,NaN,NaN,horizontal,vertical,horizontal,none,none,none
1c,13,100152,1,55,55,19,F,NA,variable,homogeneous,3,present,0.581937074661255,1,vertical,vertical,1,0.670587015151977,red,2,3,1045.12173246427,670.287525733335,738.309916622085,352.574589799621,616.568350913644,777.137884467044,1045.12173246427,670.287525733335,738.309916622085,352.574589799621,0,0,0,0,0,0,0,4,0,NaN,NaN,NaN,horizontal,vertical,horizontal,none,none,none
1c,13,100152,1,56,56,19,F,NA,variable,homogeneous,4,present,0.650688886642456,1,horizontal,horizontal,1,1.04705109596252,green,2,1,1025.15163617903,480.284751489598,919.715248510402,825.151636179026,919.715248510402,825.151636179026,1025.15163617903,480.284751489598,680.284751489598,374.848363820974,574.848363820974,719.715248510402,0,0,0,0,0,4,0,0,NaN,NaN,vertical,horizontal,vertical,horizontal,none,none
1c,13,100152,1,57,57,19,F,NA,variable,homogeneous,6,present,0.683907032012939,1,vertical,vertical,1,1.03528659343719,green,4,5,684.232422566416,372.793336331966,545.349468637584,586.654331158049,915.767577433584,827.206663668034,1054.65053136242,613.345668841951,938.882953928832,386.139005173917,684.232422566416,372.793336331966,545.349468637584,586.654331158049,661.117046071168,813.860994826083,0,0,0,4,0,0,horizontal,horizontal,horizontal,vertical,vertical,vertical
1c,13,100152,1,58,58,19,F,NA,variable,homogeneous,3,absent,0.66064190864563,1,vertical,vertical,1,0.705880522727966,red,1,NaN,960.476699717708,798.172220171528,NaN,NaN,960.476699717708,798.172220171528,891.383827134052,361.936991243214,548.13947314824,639.890788585259,0,0,0,0,0,0,4,0,0,NaN,NaN,NaN,vertical,horizontal,horizontal,none,none,none
1c,13,100152,1,59,59,19,F,NA,variable,homogeneous,4,present,0.663042068481445,1,vertical,vertical,1,0.847054553031921,green,4,1,568.891514305654,492.232343256122,692.232343256122,831.108485694346,692.232343256122,831.108485694346,1031.10848569435,707.767656743878,907.767656743878,368.891514305654,568.891514305654,492.232343256122,0,0,0,0,0,0,0,4,NaN,NaN,vertical,horizontal,horizontal,vertical,none,none
1c,13,100152,1,60,60,19,F,NA,variable,homogeneous,6,absent,0.699306964874268,1,horizontal,horizontal,1,0.741174030303955,red,5,NaN,616.568350913644,422.862115532956,NaN,NaN,738.309916622085,847.425410200379,983.431649086356,777.137884467044,1045.12173246427,529.712474266665,861.690083377915,352.574589799621,616.568350913644,422.862115532956,554.878267535729,670.287525733335,0,0,0,0,4,0,vertical,horizontal,horizontal,horizontal,horizontal,vertical
1c,13,100152,1,61,61,19,F,NA,variable,homogeneous,3,absent,0.645311117172241,1,horizontal,horizontal,1,0.788232040405273,green,3,NaN,563.568117085469,504.475318678942,NaN,NaN,835.489140744817,852.518357529101,1000.94274216971,443.006323791957,563.568117085469,504.475318678942,0,0,0,0,0,0,0,0,4,NaN,NaN,NaN,vertical,horizontal,horizontal,none,none,none
1c,13,100152,1,62,62,19,F,NA,variable,homogeneous,3,present,1.16279697418213,1,horizontal,horizontal,1,0.835290050506592,green,3,1,755.719714694933,348.874022981887,604.658667004661,763.910840470068,604.658667004661,763.910840470068,1039.62161830041,687.215136548046,755.719714694933,348.874022981887,0,0,0,0,0,0,0,0,4,NaN,NaN,NaN,vertical,vertical,horizontal,none,none,none
1c,13,100152,1,63,63,19,F,NA,variable,homogeneous,6,present,1.40791797637939,1,horizontal,horizontal,1,0.694116020202637,red,1,3,800,855,1020.83647796503,472.5,800,855,1020.83647796503,727.5,1020.83647796503,472.5,800,345,579.163522034968,472.5,579.163522034968,727.5,4,0,0,0,0,0,horizontal,vertical,vertical,vertical,horizontal,vertical
1c,13,100152,1,64,64,19,F,NA,variable,homogeneous,6,absent,0.970476150512695,1,vertical,vertical,1,0.929406070709228,red,6,NaN,636.089159529932,795.341332995339,NaN,NaN,887.215136548046,839.621618300407,1051.12597701811,644.280285305067,963.910840470068,404.658667004661,712.784863451954,360.378381699593,548.874022981887,555.719714694933,636.089159529932,795.341332995339,0,0,0,0,0,4,horizontal,horizontal,horizontal,vertical,vertical,vertical
1c,13,100152,2,1,65,19,F,NA,variable,homogeneous,6,absent,0.772814989089966,1,horizontal,horizontal,1,0.623529005050659,red,5,NaN,650.114760665419,393.700666434388,NaN,NaN,696.282156015671,832.954091698863,949.885239334581,806.299333565612,1053.60308331891,573.345241866748,903.717843984329,367.045908301137,650.114760665419,393.700666434388,546.39691668109,626.654758133252,0,0,0,0,4,0,vertical,vertical,vertical,horizontal,horizontal,horizontal
1c,13,100152,2,2,66,19,F,NA,variable,homogeneous,4,absent,0.931521892547607,1,horizontal,horizontal,1,0.752938532829285,red,2,NaN,1011.40458100154,742.594190385041,NaN,NaN,657.405809614959,811.404581001536,1011.40458100154,742.594190385041,942.594190385041,388.595418998464,588.595418998464,457.40580961496,0,0,0,0,0,4,0,0,NaN,NaN,vertical,horizontal,vertical,horizontal,none,none
1c,13,100152,2,3,67,19,F,NA,variable,homogeneous,3,present,1.19941997528076,1,vertical,vertical,1,0.647058010101318,red,3,2,576.971974679454,723.626453162816,804.450363641507,345.03883773512,1018.57766167904,731.334709102064,804.450363641507,345.03883773512,576.971974679454,723.626453162816,0,0,0,0,0,0,0,0,4,NaN,NaN,NaN,horizontal,vertical,vertical,none,none,none
1c,13,100152,2,4,68,19,F,NA,variable,homogeneous,3,absent,0.741217136383057,1,horizontal,horizontal,1,0.670587015151977,red,1,NaN,639.523300282292,798.172220171528,NaN,NaN,639.523300282292,798.172220171528,1051.86052685176,639.890788585259,708.616172865948,361.936991243214,0,0,0,0,0,0,4,0,0,NaN,NaN,NaN,horizontal,horizontal,horizontal,none,none,none
1c,13,100152,2,5,69,19,F,NA,variable,homogeneous,6,present,1.0659019947052,1,vertical,vertical,1,0.682351517677307,green,3,6,1008.88377129369,453.738008730483,591.116228706307,746.261991269517,822.224714400653,854.029648013395,1031.10848569435,707.767656743878,1008.88377129369,453.738008730483,777.775285599347,345.970351986605,568.891514305654,492.232343256122,591.116228706307,746.261991269517,0,0,4,0,0,0,horizontal,horizontal,vertical,vertical,horizontal,vertical
1c,13,100152,2,6,70,19,F,NA,variable,homogeneous,5,absent,0.676123142242432,1,horizontal,horizontal,1,0.847054553031921,red,5,NaN,650.114760665419,806.299333565612,NaN,NaN,949.885239334581,806.299333565612,1042.51941165526,521.200666434388,800,345,557.480588344736,521.200666434388,650.114760665419,806.299333565612,0,0,0,0,0,0,4,NaN,horizontal,vertical,horizontal,vertical,horizontal,none
1c,13,100152,2,7,71,19,F,NA,variable,homogeneous,5,present,1.51409196853638,1,horizontal,horizontal,1,0.799996542930603,red,3,1,865.998856501143,353.688914296288,891.383827134052,838.063008756786,891.383827134052,838.063008756786,1054.65053136242,586.654331158049,865.998856501143,353.688914296288,586.139005173917,461.117046071168,601.827779828472,760.476699717708,0,0,0,0,4,0,0,NaN,horizontal,horizontal,horizontal,vertical,horizontal,none
1c,13,100152,2,8,72,19,F,NA,variable,homogeneous,6,absent,0.791570901870728,1,vertical,vertical,1,0.964699578285217,green,3,NaN,989.501930496736,429.371695378491,NaN,NaN,853.017481158529,849.42763818712,1042.51941165526,678.799333565612,989.501930496736,429.371695378491,746.982518841471,350.57236181288,557.480588344736,521.200666434388,610.498069503264,770.628304621509,0,0,4,0,0,0,vertical,horizontal,vertical,vertical,vertical,vertical
1c,13,100152,2,9,73,19,F,NA,variable,homogeneous,6,present,0.695443868637085,1,vertical,vertical,1,0.799996542930603,green,3,6,942.594190385041,388.595418998464,657.405809614959,811.404581001536,911.784642431215,829.192481806288,1054.37883281626,617.787900804752,942.594190385041,388.595418998464,688.215357568785,370.807518193712,545.621167183745,582.212099195248,657.405809614959,811.404581001536,0,0,4,0,0,0,vertical,vertical,vertical,horizontal,horizontal,horizontal
1c,13,100152,2,10,74,19,F,NA,variable,homogeneous,6,absent,1.00871682167053,1,horizontal,horizontal,1,0.764703035354614,green,4,NaN,813.345668841951,345.349468637584,NaN,NaN,786.654331158049,854.650531362416,1013.86099482608,738.882953928832,1027.20666366803,484.232422566416,813.345668841951,345.349468637584,586.139005173917,461.117046071168,572.793336331966,715.767577433584,0,0,0,4,0,0,vertical,horizontal,horizontal,horizontal,vertical,vertical
1c,13,100152,2,11,75,19,F,NA,variable,homogeneous,5,present,0.948172092437744,1,vertical,vertical,1,0.952935075759888,red,4,5,661.117046071168,386.139005173917,553.688914296288,665.998856501143,786.654331158049,854.650531362416,1038.06300875679,691.383827134052,960.476699717708,401.827779828472,661.117046071168,386.139005173917,553.688914296288,665.998856501143,0,0,0,0,0,4,0,NaN,vertical,vertical,horizontal,vertical,vertical,none
1c,13,100152,2,12,76,19,F,NA,variable,homogeneous,4,present,0.676874160766602,1,vertical,vertical,1,0.670587015151977,green,4,3,572.793336331966,715.767577433584,684.232422566416,372.793336331966,915.767577433584,827.206663668034,1027.20666366803,484.232422566416,684.232422566416,372.793336331966,572.793336331966,715.767577433584,0,0,0,0,0,0,0,4,NaN,NaN,horizontal,vertical,horizontal,vertical,none,none
1c,13,100152,2,13,77,19,F,NA,variable,homogeneous,6,absent,0.879050970077515,1,horizontal,horizontal,1,1.03528659343719,red,3,NaN,1054.96116226488,595.549636358493,NaN,NaN,676.373546837184,823.028025320546,931.334709102064,818.577661679039,1054.96116226488,595.549636358493,923.626453162816,376.971974679454,668.665290897936,381.422338320961,545.03883773512,604.450363641507,0,0,4,0,0,0,vertical,vertical,horizontal,vertical,vertical,vertical
1c,13,100152,2,14,78,19,F,NA,variable,homogeneous,6,absent,0.561622142791748,1,horizontal,horizontal,1,0.835290050506592,green,5,NaN,583.747735480111,464.870587620533,NaN,NaN,791.100628340862,854.844660889869,1016.25226451989,735.129412379467,1025.15163617903,480.284751489598,808.899371659138,345.155339110131,583.747735480111,464.870587620533,574.848363820974,719.715248510402,0,0,0,0,4,0,vertical,horizontal,horizontal,horizontal,horizontal,horizontal
1c,13,100152,2,15,79,19,F,NA,variable,homogeneous,5,present,0.599697828292847,1,vertical,vertical,1,0.941170573234558,green,3,2,995.341332995339,436.089159529932,1016.25226451989,735.129412379467,738.309916622085,847.425410200379,1016.25226451989,735.129412379467,995.341332995339,436.089159529932,704.475318678942,363.568117085469,545.621167183745,617.787900804752,0,0,0,0,4,0,0,NaN,vertical,horizontal,vertical,horizontal,horizontal,none
1c,13,100152,2,16,80,19,F,NA,variable,homogeneous,4,absent,0.633820056915283,1,horizontal,horizontal,1,1.08234460353851,green,3,NaN,911.784642431215,370.807518193712,NaN,NaN,688.215357568785,829.192481806288,1029.19248180629,711.784642431215,911.784642431215,370.807518193712,570.807518193712,488.215357568785,0,0,0,0,0,0,4,0,NaN,NaN,vertical,horizontal,horizontal,horizontal,none,none
1c,13,100152,2,17,81,19,F,NA,variable,homogeneous,4,present,0.627261161804199,1,vertical,vertical,1,1.02352209091187,red,3,4,942.594190385041,388.595418998464,588.595418998464,457.40580961496,657.405809614959,811.404581001536,1011.40458100154,742.594190385041,942.594190385041,388.595418998464,588.595418998464,457.40580961496,0,0,0,0,0,0,4,0,NaN,NaN,horizontal,vertical,vertical,vertical,none,none
1c,13,100152,2,18,82,19,F,NA,variable,homogeneous,5,absent,0.736797094345093,1,horizontal,horizontal,1,0.847054553031921,red,1,NaN,755.719714694933,851.125977018113,NaN,NaN,755.719714694933,851.125977018113,1025.15163617903,719.715248510402,983.431649086356,422.862115532956,688.215357568785,370.807518193712,547.481642470899,635.489140744817,0,0,4,0,0,0,0,NaN,horizontal,horizontal,horizontal,vertical,vertical,none
1c,13,100152,2,19,83,19,F,NA,variable,homogeneous,4,absent,0.619589805603027,1,horizontal,horizontal,1,0.999993085861206,red,1,NaN,668.665290897936,818.577661679039,NaN,NaN,668.665290897936,818.577661679039,1018.57766167904,731.334709102064,931.334709102064,381.422338320961,581.422338320961,468.665290897936,0,0,0,0,4,0,0,0,NaN,NaN,horizontal,vertical,vertical,horizontal,none,none
1c,13,100152,2,20,84,19,F,NA,variable,homogeneous,5,present,1.09113788604736,1,vertical,vertical,1,0.752938532829285,green,2,5,1042.51941165526,678.799333565612,557.480588344736,678.799333565612,800,855,1042.51941165526,678.799333565612,949.885239334581,393.700666434388,650.114760665419,393.700666434388,557.480588344736,678.799333565612,0,0,0,4,0,0,0,NaN,vertical,vertical,horizontal,vertical,vertical,none
1c,13,100152,2,21,85,19,F,NA,variable,homogeneous,6,present,0.676147937774658,1,horizontal,horizontal,1,0.752938532829285,red,4,1,915.767577433584,372.793336331966,684.232422566416,827.206663668034,684.232422566416,827.206663668034,938.882953928832,813.860994826083,1054.65053136242,586.654331158049,915.767577433584,372.793336331966,661.117046071168,386.139005173917,545.349468637584,613.345668841951,0,0,0,4,0,0,horizontal,vertical,horizontal,horizontal,horizontal,vertical
1c,13,100152,2,22,86,19,F,NA,variable,homogeneous,3,present,0.901767015457153,1,horizontal,horizontal,1,0.788232040405273,red,2,1,1029.19248180629,711.784642431215,588.595418998464,742.594190385041,588.595418998464,742.594190385041,1029.19248180629,711.784642431215,782.212099195248,345.621167183745,0,0,0,0,0,0,0,4,0,NaN,NaN,NaN,vertical,horizontal,vertical,none,none,none
1c,13,100152,2,23,87,19,F,NA,variable,homogeneous,4,present,1.10121321678162,1,horizontal,horizontal,1,0.670587015151977,red,1,3,692.232343256122,831.108485694346,907.767656743878,368.891514305654,692.232343256122,831.108485694346,1031.10848569435,707.767656743878,907.767656743878,368.891514305654,568.891514305654,492.232343256122,0,0,0,0,4,0,0,0,NaN,NaN,horizontal,horizontal,vertical,horizontal,none,none
1c,13,100152,2,24,88,19,F,NA,variable,homogeneous,4,present,0.955816030502319,0,vertical,horizontal,1,0.623529005050659,green,4,2,557.480588344736,678.799333565612,1042.51941165526,521.200666434388,878.799333565612,842.519411655264,1042.51941165526,521.200666434388,721.200666434388,357.480588344736,557.480588344736,678.799333565612,0,0,0,0,0,0,0,4,NaN,NaN,vertical,horizontal,horizontal,vertical,none,none
1c,13,100152,2,25,89,19,F,NA,variable,homogeneous,3,present,0.632756948471069,1,horizontal,horizontal,1,0.694116020202637,green,2,3,1054.84466088987,591.100628340862,664.870587620533,383.747735480111,680.284751489598,825.151636179026,1054.84466088987,591.100628340862,664.870587620533,383.747735480111,0,0,0,0,0,0,0,4,0,NaN,NaN,NaN,vertical,horizontal,vertical,none,none,none
1c,13,100152,2,26,90,19,F,NA,variable,homogeneous,5,present,0.614702939987183,1,horizontal,horizontal,1,1.04705109596252,green,2,3,1020.83647796503,727.5,989.501930496736,429.371695378491,746.982518841471,849.42763818712,1020.83647796503,727.5,989.501930496736,429.371695378491,696.282156015671,367.045908301137,546.39691668109,626.654758133252,0,0,0,4,0,0,0,NaN,vertical,horizontal,vertical,horizontal,vertical,none
1c,13,100152,2,27,91,19,F,NA,variable,homogeneous,3,present,0.722024202346802,1,vertical,vertical,1,0.941170573234558,green,3,2,576.971974679454,723.626453162816,804.450363641507,345.03883773512,1018.57766167904,731.334709102064,804.450363641507,345.03883773512,576.971974679454,723.626453162816,0,0,0,0,0,0,0,0,4,NaN,NaN,NaN,vertical,horizontal,vertical,none,none,none
1c,13,100152,2,28,92,19,F,NA,variable,homogeneous,5,absent,0.85810399055481,1,vertical,vertical,1,0.87058355808258,green,1,NaN,786.654331158049,854.650531362416,NaN,NaN,786.654331158049,854.650531362416,1038.06300875679,691.383827134052,960.476699717708,401.827779828472,661.117046071168,386.139005173917,553.688914296288,665.998856501143,0,0,4,0,0,0,0,NaN,vertical,horizontal,horizontal,vertical,vertical,none
1c,13,100152,2,29,93,19,F,NA,variable,homogeneous,6,present,1.33194088935852,1,horizontal,horizontal,1,1.02352209091187,red,6,4,574.848363820974,719.715248510402,808.899371659138,345.155339110131,791.100628340862,854.844660889869,1016.25226451989,735.129412379467,1025.15163617903,480.284751489598,808.899371659138,345.155339110131,583.747735480111,464.870587620533,574.848363820974,719.715248510402,0,0,0,0,0,4,horizontal,vertical,horizontal,horizontal,horizontal,horizontal
1c,13,100152,2,30,94,19,F,NA,variable,homogeneous,4,absent,0.923038959503174,1,vertical,vertical,1,0.61176450252533,red,4,NaN,581.422338320961,468.665290897936,NaN,NaN,668.665290897936,818.577661679039,1018.57766167904,731.334709102064,931.334709102064,381.422338320961,581.422338320961,468.665290897936,0,0,0,0,0,0,0,4,NaN,NaN,horizontal,vertical,horizontal,vertical,none,none
1c,13,100152,2,31,95,19,F,NA,variable,homogeneous,5,absent,0.710355043411255,1,vertical,vertical,1,1.03528659343719,red,3,NaN,883.019879386575,358.892763222174,NaN,NaN,874.554784704298,843.857712770574,1054.96116226488,604.450363641507,883.019879386575,358.892763222174,596.34794493794,446.537169096228,591.116228706307,746.261991269517,0,0,0,0,4,0,0,NaN,horizontal,horizontal,vertical,horizontal,vertical,none
1c,13,100152,2,32,96,19,F,NA,variable,homogeneous,5,absent,1.02288603782654,1,horizontal,horizontal,1,0.905877065658569,green,1,NaN,844.280285305067,851.125977018113,NaN,NaN,844.280285305067,851.125977018113,1052.5183575291,635.489140744817,911.784642431215,370.807518193712,616.568350913644,422.862115532956,574.848363820974,719.715248510402,0,0,4,0,0,0,0,NaN,horizontal,vertical,horizontal,horizontal,horizontal,none
1c,13,100152,2,33,97,19,F,NA,variable,homogeneous,4,absent,0.610978841781616,1,vertical,vertical,1,0.976464080810547,green,2,NaN,992.450942956807,432.704947607421,NaN,NaN,967.295052392579,792.450942956807,992.450942956807,432.704947607421,632.704947607421,407.549057043193,607.549057043193,767.295052392579,0,0,0,0,0,4,0,0,NaN,NaN,horizontal,vertical,horizontal,horizontal,none,none
1c,13,100152,2,34,98,19,F,NA,variable,homogeneous,5,present,0.790668964385986,1,horizontal,horizontal,1,0.964699578285217,red,5,1,545.970351986605,622.224714400653,742.637481142314,848.464366520235,742.637481142314,848.464366520235,1018.57766167904,731.334709102064,992.450942956807,432.704947607421,700.363562235235,365.271262369628,545.970351986605,622.224714400653,0,0,0,0,0,0,4,NaN,horizontal,horizontal,vertical,horizontal,horizontal,none
1c,13,100152,2,35,99,19,F,NA,variable,homogeneous,3,absent,0.644081830978394,1,vertical,vertical,1,0.658822512626648,red,2,NaN,1023.02802532055,723.626453162816,NaN,NaN,581.422338320961,731.334709102064,1023.02802532055,723.626453162816,795.549636358493,345.03883773512,0,0,0,0,0,0,0,4,0,NaN,NaN,NaN,vertical,vertical,vertical,none,none,none
1c,13,100152,2,36,100,19,F,NA,variable,homogeneous,6,present,1.00607299804688,1,horizontal,horizontal,1,0.847054553031921,green,1,5,826.654758133252,853.60308331891,567.045908301137,496.282156015671,826.654758133252,853.60308331891,1032.95409169886,703.717843984329,1006.29933356561,450.114760665419,773.345241866748,346.39691668109,567.045908301137,496.282156015671,593.700666434388,749.885239334581,4,0,0,0,0,0,horizontal,horizontal,vertical,horizontal,horizontal,vertical
1c,13,100152,2,37,101,19,F,NA,variable,homogeneous,5,absent,0.616453886032104,1,vertical,vertical,1,0.905877065658569,red,4,NaN,622.862115532956,416.568350913644,NaN,NaN,835.489140744817,852.518357529101,1051.12597701811,644.280285305067,919.715248510402,374.848363820974,622.862115532956,416.568350913644,570.807518193712,711.784642431215,0,0,0,0,0,4,0,NaN,vertical,horizontal,horizontal,vertical,horizontal,none
1c,13,100152,2,38,102,19,F,NA,variable,homogeneous,3,absent,1.07617592811584,1,horizontal,horizontal,1,0.764703035354614,green,3,NaN,716.980120613425,358.892763222174,NaN,NaN,632.704947607421,792.450942956807,1050.31493177915,648.656293821019,716.980120613425,358.892763222174,0,0,0,0,0,0,0,0,4,NaN,NaN,NaN,horizontal,horizontal,horizontal,none,none,none
1c,13,100152,2,39,103,19,F,NA,variable,homogeneous,5,present,0.93513298034668,1,horizontal,horizontal,1,1.05881559848785,green,3,1,870.287525733335,354.878267535729,887.215136548046,839.621618300407,887.215136548046,839.621618300407,1054.84466088987,591.100628340862,870.287525733335,354.878267535729,588.595418998464,457.40580961496,599.057257830286,756.993676208043,0,0,0,0,4,0,0,NaN,horizontal,vertical,horizontal,vertical,vertical,none
1c,13,100152,2,40,104,19,F,NA,variable,homogeneous,3,absent,0.743703842163086,1,horizontal,horizontal,1,1.08234460353851,red,3,NaN,545.349468637584,613.345668841951,NaN,NaN,938.882953928832,813.860994826083,915.767577433584,372.793336331966,545.349468637584,613.345668841951,0,0,0,0,0,0,0,0,4,NaN,NaN,NaN,horizontal,horizontal,horizontal,none,none,none
1c,13,100152,2,41,105,19,F,NA,variable,homogeneous,5,present,1.02625203132629,1,vertical,vertical,1,0.788232040405273,red,4,1,700.363562235235,365.271262369628,742.637481142314,848.464366520235,742.637481142314,848.464366520235,1018.57766167904,731.334709102064,992.450942956807,432.704947607421,700.363562235235,365.271262369628,545.970351986605,622.224714400653,0,0,0,0,0,4,0,NaN,horizontal,vertical,horizontal,vertical,horizontal,none
1c,13,100152,2,42,106,19,F,NA,variable,homogeneous,6,present,0.824924945831299,1,vertical,vertical,1,0.694116020202637,red,4,1,791.100628340862,345.155339110131,808.899371659138,854.844660889869,808.899371659138,854.844660889869,1025.15163617903,719.715248510402,1016.25226451989,464.870587620533,791.100628340862,345.155339110131,574.848363820974,480.284751489598,583.747735480111,735.129412379467,0,0,0,4,0,0,vertical,vertical,horizontal,vertical,horizontal,horizontal
1c,13,100152,2,43,107,19,F,NA,variable,homogeneous,3,present,0.702738046646118,1,vertical,vertical,1,0.847054553031921,green,3,1,746.982518841471,350.57236181288,610.498069503264,770.628304621509,610.498069503264,770.628304621509,1042.51941165526,678.799333565612,746.982518841471,350.57236181288,0,0,0,0,0,0,0,0,4,NaN,NaN,NaN,horizontal,horizontal,vertical,none,none,none
1c,13,100152,2,44,108,19,F,NA,variable,homogeneous,4,present,0.849103927612305,1,vertical,vertical,1,0.811761045455933,red,3,2,970.628304621509,410.498069503264,989.501930496736,770.628304621509,629.371695378491,789.501930496736,989.501930496736,770.628304621509,970.628304621509,410.498069503264,610.498069503264,429.371695378491,0,0,0,0,0,0,4,0,NaN,NaN,vertical,horizontal,vertical,horizontal,none,none
1c,13,100152,2,45,109,19,F,NA,variable,homogeneous,3,absent,0.489637136459351,1,vertical,vertical,1,0.764703035354614,green,3,NaN,721.200666434388,357.480588344736,NaN,NaN,629.371695378491,789.501930496736,1049.42763818712,653.017481158529,721.200666434388,357.480588344736,0,0,0,0,0,0,0,0,4,NaN,NaN,NaN,horizontal,vertical,vertical,none,none,none
1c,13,100152,2,46,110,19,F,NA,variable,homogeneous,5,absent,0.574408054351807,1,horizontal,horizontal,1,0.741174030303955,green,3,NaN,1029.19248180629,488.215357568785,NaN,NaN,680.284751489598,825.151636179026,977.137884467044,783.431649086356,1029.19248180629,488.215357568785,764.510859255183,347.4816424709,548.874022981887,555.719714694933,0,0,0,0,4,0,0,NaN,horizontal,vertical,horizontal,vertical,vertical,none
1c,13,100152,2,47,111,19,F,NA,variable,homogeneous,5,absent,0.763101100921631,1,vertical,vertical,1,1.05881559848785,green,1,NaN,826.654758133252,853.60308331891,NaN,NaN,826.654758133252,853.60308331891,1049.42763818712,653.017481158529,927.5,379.163522034968,629.371695378491,410.498069503264,567.045908301137,703.717843984329,0,0,4,0,0,0,0,NaN,vertical,horizontal,horizontal,horizontal,vertical,none
1c,13,100152,2,48,112,19,F,NA,variable,homogeneous,3,absent,0.899111986160278,1,vertical,vertical,1,0.835290050506592,red,1,NaN,899.636437764765,834.728737630372,NaN,NaN,899.636437764765,834.728737630372,953.462830903772,396.34794493794,546.900731331463,568.923317431687,0,0,0,0,0,0,4,0,0,NaN,NaN,NaN,vertical,vertical,horizontal,none,none,none
1c,13,100152,2,49,113,19,F,NA,variable,homogeneous,3,present,0.546669960021973,1,horizontal,horizontal,1,0.670587015151977,red,3,2,629.371695378491,410.498069503264,1049.42763818712,546.982518841471,721.200666434388,842.519411655264,1049.42763818712,546.982518841471,629.371695378491,410.498069503264,0,0,0,0,0,0,0,0,4,NaN,NaN,NaN,horizontal,horizontal,horizontal,none,none,none
1c,13,100152,2,50,114,19,F,NA,variable,homogeneous,6,present,0.803632020950317,1,horizontal,horizontal,1,0.89411256313324,green,3,6,1006.29933356561,450.114760665419,593.700666434388,749.885239334581,826.654758133252,853.60308331891,1032.95409169886,703.717843984329,1006.29933356561,450.114760665419,773.345241866748,346.39691668109,567.045908301137,496.282156015671,593.700666434388,749.885239334581,0,0,4,0,0,0,horizontal,vertical,horizontal,horizontal,horizontal,vertical
1c,13,100152,2,51,115,19,F,NA,variable,homogeneous,6,absent,0.903963088989258,1,vertical,vertical,1,0.6,red,6,NaN,661.117046071168,813.860994826083,NaN,NaN,915.767577433584,827.206663668034,1054.65053136242,613.345668841951,938.882953928832,386.139005173917,684.232422566416,372.793336331966,545.349468637584,586.654331158049,661.117046071168,813.860994826083,0,0,0,0,0,4,vertical,horizontal,vertical,horizontal,horizontal,vertical
1c,13,100152,2,52,116,19,F,NA,variable,homogeneous,4,present,0.594219923019409,1,horizontal,horizontal,1,0.811761045455933,green,3,4,808.899371659138,345.155339110131,545.155339110131,591.100628340862,791.100628340862,854.844660889869,1054.84466088987,608.899371659138,808.899371659138,345.155339110131,545.155339110131,591.100628340862,0,0,0,0,0,0,4,0,NaN,NaN,vertical,vertical,horizontal,horizontal,none,none
1c,13,100152,2,53,117,19,F,NA,variable,homogeneous,6,absent,0.89832592010498,1,vertical,vertical,1,0.999993085861206,green,1,NaN,848.656293821019,850.314931779154,NaN,NaN,848.656293821019,850.314931779154,1041.10723677783,683.019879386575,992.450942956807,432.704947607421,751.343706178981,349.685068220846,558.892763222174,516.980120613425,607.549057043193,767.295052392579,4,0,0,0,0,0,vertical,horizontal,vertical,horizontal,vertical,vertical
1c,13,100152,2,54,118,19,F,NA,variable,homogeneous,6,absent,0.802809000015259,1,vertical,vertical,1,0.917641568183899,red,3,NaN,992.450942956807,432.704947607421,NaN,NaN,848.656293821019,850.314931779154,1041.10723677783,683.019879386575,992.450942956807,432.704947607421,751.343706178981,349.685068220846,558.892763222174,516.980120613425,607.549057043193,767.295052392579,0,0,4,0,0,0,vertical,vertical,vertical,horizontal,horizontal,horizontal
1c,13,100152,2,55,119,19,F,NA,variable,homogeneous,6,present,0.769462108612061,1,vertical,vertical,1,0.717645025253296,red,4,3,672.5,379.163522034968,927.5,379.163522034968,927.5,820.836477965032,1055,600,927.5,379.163522034968,672.5,379.163522034968,545,600,672.5,820.836477965032,0,0,0,4,0,0,horizontal,horizontal,horizontal,vertical,vertical,horizontal
1c,13,100152,2,56,120,19,F,NA,variable,homogeneous,4,absent,0.534087896347046,1,vertical,vertical,1,0.858819055557251,red,3,NaN,907.767656743878,368.891514305654,NaN,NaN,692.232343256122,831.108485694346,1031.10848569435,707.767656743878,907.767656743878,368.891514305654,568.891514305654,492.232343256122,0,0,0,0,0,0,4,0,NaN,NaN,horizontal,horizontal,vertical,horizontal,none,none
1c,13,100152,2,57,121,19,F,NA,variable,homogeneous,3,absent,0.51307487487793,1,vertical,vertical,1,0.799996542930603,green,3,NaN,746.982518841471,350.57236181288,NaN,NaN,610.498069503264,770.628304621509,1042.51941165526,678.799333565612,746.982518841471,350.57236181288,0,0,0,0,0,0,0,0,4,NaN,NaN,NaN,vertical,vertical,vertical,none,none,none
1c,13,100152,2,58,122,19,F,NA,variable,homogeneous,3,present,0.506952047348022,1,vertical,vertical,1,0.976464080810547,red,2,1,1046.31108570371,665.998856501143,619.68777079743,780.31222920257,619.68777079743,780.31222920257,1046.31108570371,665.998856501143,734.001143498857,353.688914296288,0,0,0,0,0,0,0,4,0,NaN,NaN,NaN,vertical,vertical,horizontal,none,none,none
1c,13,100152,2,59,123,19,F,NA,variable,homogeneous,4,absent,0.658987045288086,1,horizontal,horizontal,1,1.08234460353851,green,2,NaN,1039.62161830041,512.784863451954,NaN,NaN,887.215136548046,839.621618300407,1039.62161830041,512.784863451954,712.784863451954,360.378381699593,560.378381699593,687.215136548046,0,0,0,0,0,4,0,0,NaN,NaN,vertical,horizontal,vertical,vertical,none,none
1c,13,100152,2,60,124,19,F,NA,variable,homogeneous,4,present,0.755944967269897,1,horizontal,horizontal,1,0.776467537879944,red,1,3,639.523300282292,798.172220171528,960.476699717708,401.827779828472,639.523300282292,798.172220171528,998.172220171528,760.476699717708,960.476699717708,401.827779828472,601.827779828472,439.523300282291,0,0,0,0,4,0,0,0,NaN,NaN,horizontal,vertical,vertical,horizontal,none,none
1c,13,100152,2,61,125,19,F,NA,variable,homogeneous,4,present,0.540451049804688,1,horizontal,horizontal,1,0.858819055557251,green,4,3,579.163522034968,472.5,927.5,379.163522034968,672.5,820.836477965032,1020.83647796503,727.5,927.5,379.163522034968,579.163522034968,472.5,0,0,0,0,0,0,0,4,NaN,NaN,horizontal,horizontal,vertical,horizontal,none,none
1c,13,100152,2,62,126,19,F,NA,variable,homogeneous,3,absent,0.622836112976074,1,horizontal,horizontal,1,0.964699578285217,green,1,NaN,907.767656743878,831.108485694346,NaN,NaN,907.767656743878,831.108485694346,946.261991269517,391.116228706307,545.970351986605,577.775285599347,0,0,0,0,0,0,4,0,0,NaN,NaN,NaN,horizontal,horizontal,horizontal,none,none,none
1c,13,100152,2,63,127,19,F,NA,variable,homogeneous,3,present,0.54525899887085,1,horizontal,horizontal,1,0.682351517677307,green,3,2,545.03883773512,595.549636358493,931.334709102064,381.422338320961,923.626453162816,823.028025320546,931.334709102064,381.422338320961,545.03883773512,595.549636358493,0,0,0,0,0,0,0,0,4,NaN,NaN,NaN,horizontal,vertical,horizontal,none,none,none
1c,13,100152,2,64,128,19,F,NA,variable,homogeneous,4,absent,0.765499114990234,1,vertical,vertical,1,0.858819055557251,green,4,NaN,579.163522034968,472.5,NaN,NaN,672.5,820.836477965032,1020.83647796503,727.5,927.5,379.163522034968,579.163522034968,472.5,0,0,0,0,0,0,0,4,NaN,NaN,vertical,horizontal,horizontal,vertical,none,none
1c,13,100152,3,1,129,19,F,NA,variable,homogeneous,3,present,0.780103921890259,1,horizontal,horizontal,1,0.799996542930603,red,3,1,560.378381699593,512.784863451954,844.280285305067,851.125977018113,844.280285305067,851.125977018113,995.341332995339,436.089159529932,560.378381699593,512.784863451954,0,0,0,0,0,0,0,0,4,NaN,NaN,NaN,vertical,vertical,horizontal,none,none,none
1c,13,100152,3,2,130,19,F,NA,variable,homogeneous,3,present,0.616837024688721,1,vertical,vertical,1,0.647058010101318,red,3,1,613.504806087112,426.090418184063,742.637481142314,848.464366520235,742.637481142314,848.464366520235,1043.85771277057,525.445215295702,613.504806087112,426.090418184063,0,0,0,0,0,0,0,0,4,NaN,NaN,NaN,vertical,horizontal,vertical,none,none,none
1c,13,100152,3,3,131,19,F,NA,variable,homogeneous,5,present,1.01789903640747,1,horizontal,horizontal,1,1.02352209091187,red,1,2,835.489140744817,852.518357529101,1051.12597701811,644.280285305067,835.489140744817,852.518357529101,1051.12597701811,644.280285305067,919.715248510402,374.848363820974,622.862115532956,416.568350913644,570.807518193712,711.784642431215,0,0,4,0,0,0,0,NaN,horizontal,vertical,horizontal,horizontal,horizontal,none
1c,13,100152,3,4,132,19,F,NA,variable,homogeneous,6,absent,0.698026180267334,1,vertical,vertical,1,0.776467537879944,red,2,NaN,989.501930496736,770.628304621509,NaN,NaN,746.982518841471,849.42763818712,989.501930496736,770.628304621509,1042.51941165526,521.200666434388,853.017481158529,350.57236181288,610.498069503264,429.371695378491,557.480588344736,678.799333565612,0,4,0,0,0,0,vertical,vertical,vertical,vertical,vertical,horizontal
1c,13,100152,3,5,133,19,F,NA,variable,homogeneous,6,present,0.725136041641235,1,vertical,vertical,1,0.858819055557251,green,2,6,931.334709102064,818.577661679039,545.03883773512,604.450363641507,676.373546837184,823.028025320546,931.334709102064,818.577661679039,1054.96116226488,595.549636358493,923.626453162816,376.971974679454,668.665290897936,381.422338320961,545.03883773512,604.450363641507,0,4,0,0,0,0,vertical,vertical,vertical,vertical,horizontal,horizontal
1c,13,100152,3,6,134,19,F,NA,variable,homogeneous,6,present,0.674846887588501,1,horizontal,horizontal,1,0.952935075759888,green,4,6,839.890788585259,348.13947314824,561.936991243214,691.383827134052,760.109211414741,851.86052685176,998.172220171528,760.476699717708,1038.06300875679,508.616172865948,839.890788585259,348.13947314824,601.827779828472,439.523300282291,561.936991243214,691.383827134052,0,0,0,4,0,0,horizontal,horizontal,horizontal,horizontal,vertical,horizontal
1c,13,100152,3,7,135,19,F,NA,variable,homogeneous,4,absent,0.55492091178894,1,vertical,vertical,1,0.717645025253296,green,3,NaN,942.594190385041,388.595418998464,NaN,NaN,657.405809614959,811.404581001536,1011.40458100154,742.594190385041,942.594190385041,388.595418998464,588.595418998464,457.40580961496,0,0,0,0,0,0,4,0,NaN,NaN,vertical,horizontal,vertical,vertical,none,none
1c,13,100152,3,8,136,19,F,NA,variable,homogeneous,4,absent,0.586933851242065,1,vertical,vertical,1,1.03528659343719,green,4,NaN,561.936991243214,691.383827134052,NaN,NaN,891.383827134052,838.063008756786,1038.06300875679,508.616172865948,708.616172865948,361.936991243214,561.936991243214,691.383827134052,0,0,0,0,0,0,0,4,NaN,NaN,vertical,vertical,vertical,vertical,none,none
1c,13,100152,3,9,137,19,F,NA,variable,homogeneous,6,absent,0.564750909805298,1,horizontal,horizontal,1,0.89411256313324,green,4,NaN,915.767577433584,372.793336331966,NaN,NaN,684.232422566416,827.206663668034,938.882953928832,813.860994826083,1054.65053136242,586.654331158049,915.767577433584,372.793336331966,661.117046071168,386.139005173917,545.349468637584,613.345668841951,0,0,0,4,0,0,horizontal,horizontal,vertical,horizontal,horizontal,horizontal
1c,13,100152,3,10,138,19,F,NA,variable,homogeneous,4,present,0.736690044403076,1,horizontal,horizontal,1,0.61176450252533,red,3,1,935.129412379467,383.747735480111,664.870587620533,816.252264519889,664.870587620533,816.252264519889,1016.25226451989,735.129412379467,935.129412379467,383.747735480111,583.747735480111,464.870587620533,0,0,0,0,0,0,4,0,NaN,NaN,vertical,vertical,horizontal,vertical,none,none
1c,13,100152,3,11,139,19,F,NA,variable,homogeneous,5,present,0.607601881027222,1,vertical,vertical,1,0.811761045455933,green,4,2,563.568117085469,504.475318678942,1047.42541020038,538.309916622085,935.129412379467,816.252264519889,1047.42541020038,538.309916622085,817.787900804752,345.621167183745,563.568117085469,504.475318678942,636.089159529932,795.341332995339,0,0,0,0,0,4,0,NaN,horizontal,vertical,horizontal,vertical,horizontal,none
1c,13,100152,3,12,140,19,F,NA,variable,homogeneous,6,absent,0.585630178451538,1,vertical,vertical,1,0.682351517677307,red,3,NaN,1020.83647796503,472.5,NaN,NaN,800,855,1020.83647796503,727.5,1020.83647796503,472.5,800,345,579.163522034968,472.5,579.163522034968,727.5,0,0,4,0,0,0,vertical,vertical,vertical,horizontal,vertical,vertical
1c,13,100152,3,13,141,19,F,NA,variable,homogeneous,5,present,0.937168836593628,1,horizontal,horizontal,1,0.788232040405273,green,1,5,746.982518841471,849.42763818712,546.39691668109,626.654758133252,746.982518841471,849.42763818712,1020.83647796503,727.5,989.501930496736,429.371695378491,696.282156015671,367.045908301137,546.39691668109,626.654758133252,0,0,4,0,0,0,0,NaN,horizontal,vertical,horizontal,vertical,vertical,none
1c,13,100152,3,14,142,19,F,NA,variable,homogeneous,5,present,0.566758871078491,1,horizontal,horizontal,1,0.941170573234558,green,3,4,878.799333565612,357.480588344736,593.700666434388,450.114760665419,878.799333565612,842.519411655264,1055,600,878.799333565612,357.480588344736,593.700666434388,450.114760665419,593.700666434388,749.885239334581,0,0,0,0,4,0,0,NaN,horizontal,vertical,horizontal,vertical,horizontal,none
1c,13,100152,3,15,143,19,F,NA,variable,homogeneous,4,present,0.617141962051392,1,vertical,vertical,1,0.941170573234558,red,1,3,883.019879386575,841.107236777826,716.980120613425,358.892763222174,883.019879386575,841.107236777826,1041.10723677783,516.980120613425,716.980120613425,358.892763222174,558.892763222174,683.019879386575,0,0,0,0,4,0,0,0,NaN,NaN,vertical,horizontal,horizontal,vertical,none,none
1c,13,100152,3,16,144,19,F,NA,variable,homogeneous,6,present,0.67832612991333,1,vertical,vertical,1,1.03528659343719,red,4,1,755.719714694933,348.874022981887,844.280285305067,851.125977018113,844.280285305067,851.125977018113,1039.62161830041,687.215136548046,995.341332995339,436.089159529932,755.719714694933,348.874022981887,560.378381699593,512.784863451954,604.658667004661,763.910840470068,0,0,0,4,0,0,horizontal,horizontal,vertical,vertical,horizontal,horizontal
1c,13,100152,3,17,145,19,F,NA,variable,homogeneous,4,present,0.570122957229614,1,horizontal,horizontal,1,0.705880522727966,red,2,3,1032.95409169886,703.717843984329,903.717843984329,367.045908301137,696.282156015671,832.954091698863,1032.95409169886,703.717843984329,903.717843984329,367.045908301137,567.045908301137,496.282156015671,0,0,0,0,0,4,0,0,NaN,NaN,horizontal,horizontal,horizontal,horizontal,none,none
1c,13,100152,3,18,146,19,F,NA,variable,homogeneous,3,present,0.996279954910278,1,horizontal,horizontal,1,0.717645025253296,red,1,2,696.282156015671,832.954091698863,1053.60308331891,573.345241866748,696.282156015671,832.954091698863,1053.60308331891,573.345241866748,650.114760665419,393.700666434388,0,0,0,0,0,0,4,0,0,NaN,NaN,NaN,horizontal,vertical,vertical,none,none,none
1c,13,100152,3,19,147,19,F,NA,variable,homogeneous,6,absent,0.633628845214844,1,horizontal,horizontal,1,1.05881559848785,red,3,NaN,973.909581815937,413.504806087112,NaN,NaN,874.554784704298,843.857712770574,1048.46436652023,657.362518857686,973.909581815937,413.504806087112,725.445215295702,356.142287229426,551.535633479765,542.637481142314,626.090418184063,786.495193912888,0,0,4,0,0,0,horizontal,horizontal,horizontal,horizontal,horizontal,horizontal
1c,13,100152,3,20,148,19,F,NA,variable,homogeneous,4,present,1.39306211471558,1,vertical,vertical,1,0.741174030303955,green,1,2,712.784863451954,839.621618300407,1039.62161830041,687.215136548046,712.784863451954,839.621618300407,1039.62161830041,687.215136548046,887.215136548046,360.378381699593,560.378381699593,512.784863451954,0,0,0,0,4,0,0,0,NaN,NaN,vertical,vertical,vertical,horizontal,none,none
1c,13,100152,3,21,149,19,F,NA,variable,homogeneous,6,absent,0.66413402557373,1,vertical,vertical,1,0.752938532829285,green,3,NaN,1048.46436652023,542.637481142314,NaN,NaN,725.445215295702,843.857712770574,973.909581815937,786.495193912888,1048.46436652023,542.637481142314,874.554784704298,356.142287229426,626.090418184063,413.504806087112,551.535633479765,657.362518857686,0,0,4,0,0,0,vertical,vertical,vertical,vertical,vertical,vertical
1c,13,100152,3,22,150,19,F,NA,variable,homogeneous,3,absent,0.596295118331909,1,horizontal,horizontal,1,0.741174030303955,green,2,NaN,853.017481158529,350.57236181288,NaN,NaN,989.501930496736,770.628304621509,853.017481158529,350.57236181288,557.480588344736,678.799333565612,0,0,0,0,0,0,0,4,0,NaN,NaN,NaN,horizontal,horizontal,horizontal,none,none,none
1c,13,100152,3,23,151,19,F,NA,variable,homogeneous,3,absent,0.764174938201904,1,horizontal,horizontal,1,0.999993085861206,green,3,NaN,548.874022981887,555.719714694933,NaN,NaN,887.215136548046,839.621618300407,963.910840470068,404.658667004661,548.874022981887,555.719714694933,0,0,0,0,0,0,0,0,4,NaN,NaN,NaN,horizontal,vertical,horizontal,none,none,none
1c,13,100152,3,24,152,19,F,NA,variable,homogeneous,4,present,0.490489959716797,1,vertical,vertical,1,0.729409527778625,red,2,3,1054.84466088987,608.899371659138,808.899371659138,345.155339110131,791.100628340862,854.844660889869,1054.84466088987,608.899371659138,808.899371659138,345.155339110131,545.155339110131,591.100628340862,0,0,0,0,0,4,0,0,NaN,NaN,vertical,vertical,vertical,horizontal,none,none
1c,13,100152,3,25,153,19,F,NA,variable,homogeneous,3,absent,0.537453174591064,1,horizontal,horizontal,1,0.858819055557251,red,2,NaN,956.993676208043,399.057257830286,NaN,NaN,895.524681321058,836.431882914531,956.993676208043,399.057257830286,547.481642470899,564.510859255183,0,0,0,0,0,0,0,4,0,NaN,NaN,NaN,horizontal,horizontal,vertical,none,none,none
1c,13,100152,3,26,154,19,F,NA,variable,homogeneous,3,present,0.642013072967529,1,horizontal,horizontal,1,0.88234806060791,green,1,3,593.700666434388,749.885239334581,773.345241866748,346.39691668109,593.700666434388,749.885239334581,1032.95409169886,703.717843984329,773.345241866748,346.39691668109,0,0,0,0,0,0,4,0,0,NaN,NaN,NaN,horizontal,vertical,horizontal,none,none,none
1c,13,100152,3,27,155,19,F,NA,variable,homogeneous,3,present,0.691627025604248,1,horizontal,horizontal,1,0.823525547981262,green,3,1,547.481642470899,635.489140744817,956.993676208043,800.942742169714,956.993676208043,800.942742169714,895.524681321058,363.568117085469,547.481642470899,635.489140744817,0,0,0,0,0,0,0,0,4,NaN,NaN,NaN,vertical,horizontal,horizontal,none,none,none
1c,13,100152,3,28,156,19,F,NA,variable,homogeneous,5,absent,0.636460065841675,1,vertical,vertical,1,0.752938532829285,red,1,NaN,738.309916622085,847.425410200379,NaN,NaN,738.309916622085,847.425410200379,1016.25226451989,735.129412379467,995.341332995339,436.089159529932,704.475318678942,363.568117085469,545.621167183745,617.787900804752,0,0,4,0,0,0,0,NaN,vertical,horizontal,horizontal,horizontal,vertical,none
1c,13,100152,3,29,157,19,F,NA,variable,homogeneous,5,absent,0.71506404876709,1,vertical,vertical,1,0.682351517677307,green,5,NaN,548.13947314824,639.890788585259,NaN,NaN,760.109211414741,851.86052685176,1027.20666366803,715.767577433584,980.31222920257,419.68777079743,684.232422566416,372.793336331966,548.13947314824,639.890788585259,0,0,0,0,0,0,4,NaN,horizontal,horizontal,horizontal,vertical,vertical,none
1c,13,100152,3,30,158,19,F,NA,variable,homogeneous,4,absent,0.6666579246521,1,horizontal,horizontal,1,0.858819055557251,red,1,NaN,777.775285599347,854.029648013395,NaN,NaN,777.775285599347,854.029648013395,1054.0296480134,622.224714400653,822.224714400653,345.970351986605,545.970351986605,577.775285599347,0,0,0,0,4,0,0,0,NaN,NaN,horizontal,vertical,horizontal,horizontal,none,none
1c,13,100152,3,31,159,19,F,NA,variable,homogeneous,5,absent,0.678004026412964,1,horizontal,horizontal,1,0.89411256313324,red,1,NaN,696.282156015671,832.954091698863,NaN,NaN,696.282156015671,832.954091698863,989.501930496736,770.628304621509,1020.83647796503,472.5,746.982518841471,350.57236181288,546.39691668109,573.345241866748,0,0,4,0,0,0,0,NaN,horizontal,vertical,horizontal,horizontal,horizontal,none
1c,13,100152,3,32,160,19,F,NA,variable,homogeneous,6,absent,0.77160906791687,1,vertical,vertical,1,0.799996542930603,green,6,NaN,576.971974679454,723.626453162816,NaN,NaN,795.549636358493,854.96116226488,1018.57766167904,731.334709102064,1023.02802532055,476.373546837184,804.450363641507,345.03883773512,581.422338320961,468.665290897936,576.971974679454,723.626453162816,0,0,0,0,0,4,horizontal,vertical,horizontal,vertical,horizontal,vertical
1c,13,100152,3,33,161,19,F,NA,variable,homogeneous,5,present,1.68327784538269,1,vertical,vertical,1,0.799996542930603,red,4,1,596.34794493794,446.537169096228,874.554784704298,843.857712770574,874.554784704298,843.857712770574,1054.96116226488,604.450363641507,883.019879386575,358.892763222174,596.34794493794,446.537169096228,591.116228706307,746.261991269517,0,0,0,0,0,4,0,NaN,horizontal,horizontal,vertical,vertical,vertical,none
1c,13,100152,3,34,162,19,F,NA,variable,homogeneous,6,present,0.658603191375732,1,vertical,vertical,1,0.88234806060791,green,3,5,935.129412379467,383.747735480111,545.155339110131,591.100628340862,919.715248510402,825.151636179026,1054.84466088987,608.899371659138,935.129412379467,383.747735480111,680.284751489598,374.848363820974,545.155339110131,591.100628340862,664.870587620533,816.252264519889,0,0,4,0,0,0,vertical,horizontal,vertical,vertical,horizontal,horizontal
1c,13,100152,3,35,163,19,F,NA,variable,homogeneous,6,present,1.21254205703735,1,horizontal,horizontal,1,0.823525547981262,red,2,6,1047.42541020038,661.690083377915,622.862115532956,783.431649086356,870.287525733335,845.121732464271,1047.42541020038,661.690083377915,977.137884467044,416.568350913644,729.712474266665,354.878267535729,552.574589799621,538.309916622085,622.862115532956,783.431649086356,0,4,0,0,0,0,vertical,horizontal,horizontal,horizontal,vertical,vertical
1c,13,100152,3,36,164,19,F,NA,variable,homogeneous,3,present,1.02402496337891,1,vertical,vertical,1,0.741174030303955,green,1,3,878.799333565612,842.519411655264,550.57236181288,546.982518841471,878.799333565612,842.519411655264,970.628304621509,410.498069503264,550.57236181288,546.982518841471,0,0,0,0,0,0,4,0,0,NaN,NaN,NaN,vertical,vertical,horizontal,none,none,none
1c,13,100152,3,37,165,19,F,NA,variable,homogeneous,4,absent,0.670665979385376,1,horizontal,horizontal,1,1.09410910606384,green,1,NaN,915.767577433584,827.206663668034,NaN,NaN,915.767577433584,827.206663668034,1027.20666366803,484.232422566416,684.232422566416,372.793336331966,572.793336331966,715.767577433584,0,0,0,0,4,0,0,0,NaN,NaN,horizontal,vertical,horizontal,vertical,none,none
1c,13,100152,3,38,166,19,F,NA,variable,homogeneous,6,present,0.996809005737305,1,horizontal,horizontal,1,0.823525547981262,red,1,3,919.715248510402,825.151636179026,935.129412379467,383.747735480111,919.715248510402,825.151636179026,1054.84466088987,608.899371659138,935.129412379467,383.747735480111,680.284751489598,374.848363820974,545.155339110131,591.100628340862,664.870587620533,816.252264519889,4,0,0,0,0,0,horizontal,horizontal,vertical,horizontal,vertical,horizontal
1c,13,100152,3,39,167,19,F,NA,variable,homogeneous,4,absent,0.896569967269897,1,horizontal,horizontal,1,1.01175758838654,red,3,NaN,791.100628340862,345.155339110131,NaN,NaN,808.899371659138,854.844660889869,1054.84466088987,591.100628340862,791.100628340862,345.155339110131,545.155339110131,608.899371659138,0,0,0,0,0,0,4,0,NaN,NaN,horizontal,horizontal,horizontal,horizontal,none,none
1c,13,100152,3,40,168,19,F,NA,variable,homogeneous,3,absent,0.630736827850342,1,horizontal,horizontal,1,0.976464080810547,red,2,NaN,817.787900804752,345.621167183745,NaN,NaN,1011.40458100154,742.594190385041,817.787900804752,345.621167183745,570.807518193712,711.784642431215,0,0,0,0,0,0,0,4,0,NaN,NaN,NaN,horizontal,horizontal,horizontal,none,none,none
1c,13,100152,3,41,169,19,F,NA,variable,homogeneous,6,present,0.751226902008057,1,vertical,vertical,1,1.01175758838654,red,2,5,935.129412379467,816.252264519889,664.870587620533,383.747735480111,680.284751489598,825.151636179026,935.129412379467,816.252264519889,1054.84466088987,591.100628340862,919.715248510402,374.848363820974,664.870587620533,383.747735480111,545.155339110131,608.899371659138,0,4,0,0,0,0,horizontal,vertical,vertical,horizontal,horizontal,vertical
1c,13,100152,3,42,170,19,F,NA,variable,homogeneous,3,absent,0.709933996200562,1,vertical,vertical,1,0.941170573234558,red,3,NaN,552.574589799621,661.690083377915,NaN,NaN,977.137884467044,783.431649086356,870.287525733335,354.878267535729,552.574589799621,661.690083377915,0,0,0,0,0,0,0,0,4,NaN,NaN,NaN,horizontal,vertical,vertical,none,none,none
1c,13,100152,3,43,171,19,F,NA,variable,homogeneous,3,absent,0.612099885940552,1,vertical,vertical,1,0.988228583335876,green,3,NaN,629.371695378491,410.498069503264,NaN,NaN,721.200666434388,842.519411655264,1049.42763818712,546.982518841471,629.371695378491,410.498069503264,0,0,0,0,0,0,0,0,4,NaN,NaN,NaN,vertical,horizontal,vertical,none,none,none
1c,13,100152,3,44,172,19,F,NA,variable,homogeneous,3,absent,0.775750875473022,1,vertical,vertical,1,0.764703035354614,red,1,NaN,721.200666434388,842.519411655264,NaN,NaN,721.200666434388,842.519411655264,1049.42763818712,546.982518841471,629.371695378491,410.498069503264,0,0,0,0,0,0,4,0,0,NaN,NaN,NaN,vertical,vertical,horizontal,none,none,none
1c,13,100152,3,45,173,19,F,NA,variable,homogeneous,5,absent,0.650692939758301,1,vertical,vertical,1,0.752938532829285,green,4,NaN,570.807518193712,488.215357568785,NaN,NaN,919.715248510402,825.151636179026,1051.12597701811,555.719714694933,835.489140744817,347.4816424709,570.807518193712,488.215357568785,622.862115532956,783.431649086356,0,0,0,0,0,4,0,NaN,horizontal,vertical,horizontal,vertical,vertical,none
1c,13,100152,3,46,174,19,F,NA,variable,homogeneous,5,absent,0.827739953994751,1,horizontal,horizontal,1,1.01175758838654,green,1,NaN,887.215136548046,839.621618300407,NaN,NaN,887.215136548046,839.621618300407,1054.84466088987,591.100628340862,870.287525733335,354.878267535729,588.595418998464,457.40580961496,599.057257830286,756.993676208043,0,0,4,0,0,0,0,NaN,horizontal,vertical,horizontal,horizontal,vertical,none
1c,13,100152,3,47,175,19,F,NA,variable,homogeneous,3,absent,0.617108106613159,1,vertical,vertical,1,1.02352209091187,green,1,NaN,672.5,820.836477965032,NaN,NaN,672.5,820.836477965032,1055,600,672.5,379.163522034968,0,0,0,0,0,0,4,0,0,NaN,NaN,NaN,vertical,horizontal,horizontal,none,none,none
1c,13,100152,3,48,176,19,F,NA,variable,homogeneous,5,present,0.631254911422729,1,horizontal,horizontal,1,0.88234806060791,red,1,4,923.626453162816,823.028025320546,568.891514305654,492.232343256122,923.626453162816,823.028025320546,1050.31493177915,551.343706178981,831.076682568313,346.900731331463,568.891514305654,492.232343256122,626.090418184063,786.495193912888,0,0,4,0,0,0,0,NaN,horizontal,vertical,vertical,horizontal,vertical,none
1c,13,100152,3,49,177,19,F,NA,variable,homogeneous,5,present,0.953879117965698,1,vertical,vertical,1,1.08234460353851,green,2,4,1054.65053136242,586.654331158049,586.139005173917,461.117046071168,891.383827134052,838.063008756786,1054.65053136242,586.654331158049,865.998856501143,353.688914296288,586.139005173917,461.117046071168,601.827779828472,760.476699717708,0,0,0,4,0,0,0,NaN,horizontal,vertical,vertical,horizontal,vertical,none
1c,13,100152,3,50,178,19,F,NA,variable,homogeneous,4,absent,0.871473073959351,1,vertical,vertical,1,0.717645025253296,red,3,NaN,973.909581815937,413.504806087112,NaN,NaN,626.090418184063,786.495193912888,986.495193912888,773.909581815937,973.909581815937,413.504806087112,613.504806087112,426.090418184063,0,0,0,0,0,0,4,0,NaN,NaN,vertical,vertical,vertical,vertical,none,none
1c,13,100152,3,51,179,19,F,NA,variable,homogeneous,3,present,0.742108106613159,1,vertical,vertical,1,1.04705109596252,red,2,3,861.690083377915,352.574589799621,554.878267535729,670.287525733335,983.431649086356,777.137884467044,861.690083377915,352.574589799621,554.878267535729,670.287525733335,0,0,0,0,0,0,0,4,0,NaN,NaN,NaN,horizontal,vertical,vertical,none,none,none
1c,13,100152,3,52,180,19,F,NA,variable,homogeneous,6,absent,0.57715916633606,1,horizontal,horizontal,1,1.01175758838654,green,6,NaN,607.549057043193,767.295052392579,NaN,NaN,848.656293821019,850.314931779154,1041.10723677783,683.019879386575,992.450942956807,432.704947607421,751.343706178981,349.685068220846,558.892763222174,516.980120613425,607.549057043193,767.295052392579,0,0,0,0,0,4,horizontal,horizontal,horizontal,horizontal,vertical,horizontal
1c,13,100152,3,53,181,19,F,NA,variable,homogeneous,4,present,0.59953498840332,1,horizontal,horizontal,1,0.917641568183899,green,2,3,980.31222920257,419.68777079743,619.68777079743,419.68777079743,980.31222920257,780.31222920257,980.31222920257,419.68777079743,619.68777079743,419.68777079743,619.68777079743,780.31222920257,0,0,0,0,0,4,0,0,NaN,NaN,vertical,horizontal,horizontal,vertical,none,none
1c,13,100152,3,54,182,19,F,NA,variable,homogeneous,6,absent,0.79172682762146,1,horizontal,horizontal,1,0.788232040405273,red,5,NaN,552.574589799621,538.309916622085,NaN,NaN,870.287525733335,845.121732464271,1047.42541020038,661.690083377915,977.137884467044,416.568350913644,729.712474266665,354.878267535729,552.574589799621,538.309916622085,622.862115532956,783.431649086356,0,0,0,0,4,0,vertical,horizontal,vertical,vertical,horizontal,horizontal
1c,13,100152,3,55,183,19,F,NA,variable,homogeneous,3,present,0.658934831619263,1,vertical,vertical,1,0.964699578285217,green,1,2,931.334709102064,818.577661679039,923.626453162816,376.971974679454,931.334709102064,818.577661679039,923.626453162816,376.971974679454,545.03883773512,604.450363641507,0,0,0,0,0,0,4,0,0,NaN,NaN,NaN,vertical,vertical,vertical,none,none,none
1c,13,100152,3,56,184,19,F,NA,variable,homogeneous,5,absent,0.619940042495728,1,horizontal,horizontal,1,0.976464080810547,green,5,NaN,545.155339110131,608.899371659138,NaN,NaN,729.712474266665,845.121732464271,1011.40458100154,742.594190385041,1000.94274216971,443.006323791957,712.784863451954,360.378381699593,545.155339110131,608.899371659138,0,0,0,0,0,0,4,NaN,vertical,vertical,horizontal,vertical,horizontal,none
1c,13,100152,3,57,185,19,F,NA,variable,homogeneous,5,present,0.548032999038696,1,vertical,vertical,1,0.976464080810547,red,2,1,1018.57766167904,731.334709102064,742.637481142314,848.464366520235,742.637481142314,848.464366520235,1018.57766167904,731.334709102064,992.450942956807,432.704947607421,700.363562235235,365.271262369628,545.970351986605,622.224714400653,0,0,0,4,0,0,0,NaN,vertical,vertical,vertical,vertical,vertical,none
1c,13,100152,3,58,186,19,F,NA,variable,homogeneous,6,present,0.5918128490448,1,horizontal,horizontal,1,0.635293507575989,green,4,5,883.019879386575,358.892763222174,632.704947607421,407.549057043193,716.980120613425,841.107236777826,967.295052392579,792.450942956807,1050.31493177915,551.343706178981,883.019879386575,358.892763222174,632.704947607421,407.549057043193,549.685068220846,648.656293821019,0,0,0,4,0,0,horizontal,horizontal,vertical,horizontal,horizontal,vertical
1c,13,100152,3,59,187,19,F,NA,variable,homogeneous,4,absent,0.506049871444702,1,horizontal,horizontal,1,0.917641568183899,green,2,NaN,1054.65053136242,613.345668841951,NaN,NaN,786.654331158049,854.650531362416,1054.65053136242,613.345668841951,813.345668841951,345.349468637584,545.349468637584,586.654331158049,0,0,0,0,0,4,0,0,NaN,NaN,horizontal,horizontal,horizontal,vertical,none,none
1c,13,100152,3,60,188,19,F,NA,variable,homogeneous,5,absent,0.538244962692261,1,vertical,vertical,1,1.08234460353851,red,2,NaN,1042.51941165526,678.799333565612,NaN,NaN,800,855,1042.51941165526,678.799333565612,949.885239334581,393.700666434388,650.114760665419,393.700666434388,557.480588344736,678.799333565612,0,0,0,4,0,0,0,NaN,horizontal,vertical,vertical,vertical,vertical,none
1c,13,100152,3,61,189,19,F,NA,variable,homogeneous,4,absent,0.653538942337036,1,vertical,vertical,1,0.623529005050659,red,2,NaN,1039.62161830041,687.215136548046,NaN,NaN,712.784863451954,839.621618300407,1039.62161830041,687.215136548046,887.215136548046,360.378381699593,560.378381699593,512.784863451954,0,0,0,0,0,4,0,0,NaN,NaN,horizontal,vertical,horizontal,horizontal,none,none
1c,13,100152,3,62,190,19,F,NA,variable,homogeneous,4,present,0.728317022323608,1,horizontal,horizontal,1,0.88234806060791,green,1,3,795.549636358493,854.96116226488,804.450363641507,345.03883773512,795.549636358493,854.96116226488,1054.96116226488,604.450363641507,804.450363641507,345.03883773512,545.03883773512,595.549636358493,0,0,0,0,4,0,0,0,NaN,NaN,horizontal,vertical,horizontal,horizontal,none,none
1c,13,100152,3,63,191,19,F,NA,variable,homogeneous,5,absent,1.0008590221405,1,horizontal,horizontal,1,1.08234460353851,red,1,NaN,800,855,NaN,NaN,800,855,1042.51941165526,678.799333565612,949.885239334581,393.700666434388,650.114760665419,393.700666434388,557.480588344736,678.799333565612,0,0,4,0,0,0,0,NaN,horizontal,vertical,horizontal,horizontal,horizontal,none
1c,13,100152,3,64,192,19,F,NA,variable,homogeneous,4,present,0.579156160354614,1,vertical,vertical,1,0.905877065658569,green,1,2,907.767656743878,831.108485694346,1031.10848569435,492.232343256122,907.767656743878,831.108485694346,1031.10848569435,492.232343256122,692.232343256122,368.891514305654,568.891514305654,707.767656743878,0,0,0,0,4,0,0,0,NaN,NaN,vertical,horizontal,vertical,vertical,none,none
1c,13,100152,4,1,193,19,F,NA,variable,homogeneous,5,present,0.61517596244812,1,vertical,vertical,1,0.788232040405273,green,2,4,1038.06300875679,691.383827134052,661.117046071168,386.139005173917,786.654331158049,854.650531362416,1038.06300875679,691.383827134052,960.476699717708,401.827779828472,661.117046071168,386.139005173917,553.688914296288,665.998856501143,0,0,0,4,0,0,0,NaN,horizontal,vertical,horizontal,vertical,vertical,none
1c,13,100152,4,2,194,19,F,NA,variable,homogeneous,3,absent,0.543246984481812,1,horizontal,horizontal,1,0.752938532829285,red,3,NaN,551.535633479765,657.362518857686,NaN,NaN,973.909581815937,786.495193912888,874.554784704298,356.142287229426,551.535633479765,657.362518857686,0,0,0,0,0,0,0,0,4,NaN,NaN,NaN,vertical,horizontal,horizontal,none,none,none
1c,13,100152,4,3,195,19,F,NA,variable,homogeneous,6,present,0.798225879669189,1,vertical,vertical,1,0.999993085861206,red,1,4,768.923317431687,853.099268668537,831.076682568313,346.900731331463,768.923317431687,853.099268668537,1003.65205506206,753.462830903772,1034.72873763037,500.363562235235,831.076682568313,346.900731331463,596.34794493794,446.537169096228,565.271262369628,699.636437764765,4,0,0,0,0,0,vertical,horizontal,vertical,vertical,horizontal,vertical
1c,13,100152,4,4,196,19,F,NA,variable,homogeneous,4,absent,0.802302122116089,1,horizontal,horizontal,1,0.61176450252533,red,2,NaN,1051.86052685176,560.109211414741,NaN,NaN,839.890788585259,851.86052685176,1051.86052685176,560.109211414741,760.109211414741,348.13947314824,548.13947314824,639.890788585259,0,0,0,0,0,4,0,0,NaN,NaN,horizontal,horizontal,horizontal,horizontal,none,none
1c,13,100152,4,5,197,19,F,NA,variable,homogeneous,3,absent,0.578008890151978,1,vertical,vertical,1,0.764703035354614,green,3,NaN,548.874022981887,644.280285305067,NaN,NaN,963.910840470068,795.341332995339,887.215136548046,360.378381699593,548.874022981887,644.280285305067,0,0,0,0,0,0,0,0,4,NaN,NaN,NaN,vertical,horizontal,vertical,none,none,none
1c,13,100152,4,6,198,19,F,NA,variable,homogeneous,6,present,0.933892011642456,1,horizontal,horizontal,1,0.799996542930603,green,5,1,619.68777079743,419.68777079743,734.001143498857,846.311085703712,734.001143498857,846.311085703712,980.31222920257,780.31222920257,1046.31108570371,534.001143498857,865.998856501143,353.688914296288,619.68777079743,419.68777079743,553.688914296288,665.998856501143,0,0,0,0,4,0,horizontal,vertical,horizontal,horizontal,horizontal,vertical
1c,13,100152,4,7,199,19,F,NA,variable,homogeneous,3,absent,0.712775230407715,1,horizontal,horizontal,1,0.999993085861206,green,1,NaN,586.139005173917,738.882953928832,NaN,NaN,586.139005173917,738.882953928832,1027.20666366803,715.767577433584,786.654331158049,345.349468637584,0,0,0,0,0,0,4,0,0,NaN,NaN,NaN,horizontal,horizontal,vertical,none,none,none
1c,13,100152,4,8,200,19,F,NA,variable,homogeneous,3,absent,0.507966041564941,1,vertical,vertical,1,1.04705109596252,green,2,NaN,1054.84466088987,591.100628340862,NaN,NaN,680.284751489598,825.151636179026,1054.84466088987,591.100628340862,664.870587620533,383.747735480111,0,0,0,0,0,0,0,4,0,NaN,NaN,NaN,vertical,vertical,vertical,none,none,none
1c,13,100152,4,9,201,19,F,NA,variable,homogeneous,3,absent,0.599784851074219,1,horizontal,horizontal,1,0.670587015151977,red,3,NaN,773.345241866748,346.39691668109,NaN,NaN,593.700666434388,749.885239334581,1032.95409169886,703.717843984329,773.345241866748,346.39691668109,0,0,0,0,0,0,0,0,4,NaN,NaN,NaN,horizontal,horizontal,horizontal,none,none,none
1c,13,100152,4,10,202,19,F,NA,variable,homogeneous,6,present,1.37345194816589,1,horizontal,horizontal,1,1.07058010101318,red,4,5,712.784863451954,360.378381699593,548.874022981887,555.719714694933,887.215136548046,839.621618300407,1051.12597701811,644.280285305067,963.910840470068,404.658667004661,712.784863451954,360.378381699593,548.874022981887,555.719714694933,636.089159529932,795.341332995339,0,0,0,4,0,0,horizontal,vertical,vertical,horizontal,horizontal,vertical
1c,13,100152,4,11,203,19,F,NA,variable,homogeneous,5,absent,0.831975936889648,1,horizontal,horizontal,1,0.941170573234558,red,1,NaN,931.334709102064,818.577661679039,NaN,NaN,931.334709102064,818.577661679039,1048.46436652023,542.637481142314,822.224714400653,345.970351986605,565.271262369628,500.363562235235,632.704947607421,792.450942956807,0,0,4,0,0,0,0,NaN,horizontal,horizontal,horizontal,horizontal,vertical,none
1c,13,100152,4,12,204,19,F,NA,variable,homogeneous,3,present,0.555187225341797,1,horizontal,horizontal,1,0.729409527778625,green,3,1,545.03883773512,604.450363641507,931.334709102064,818.577661679039,931.334709102064,818.577661679039,923.626453162816,376.971974679454,545.03883773512,604.450363641507,0,0,0,0,0,0,0,0,4,NaN,NaN,NaN,horizontal,horizontal,horizontal,none,none,none
1c,13,100152,4,13,205,19,F,NA,variable,homogeneous,5,absent,0.839939832687378,1,horizontal,horizontal,1,0.670587015151977,green,1,NaN,907.767656743878,831.108485694346,NaN,NaN,907.767656743878,831.108485694346,1053.09926866854,568.923317431687,848.656293821019,349.685068220846,576.971974679454,476.373546837184,613.504806087112,773.909581815937,0,0,4,0,0,0,0,NaN,horizontal,horizontal,vertical,vertical,vertical,none
1c,13,100152,4,14,206,19,F,NA,variable,homogeneous,3,absent,0.583921194076538,1,vertical,vertical,1,0.952935075759888,red,2,NaN,1027.20666366803,715.767577433584,NaN,NaN,586.139005173917,738.882953928832,1027.20666366803,715.767577433584,786.654331158049,345.349468637584,0,0,0,0,0,0,0,4,0,NaN,NaN,NaN,vertical,vertical,vertical,none,none,none
1c,13,100152,4,15,207,19,F,NA,variable,homogeneous,4,present,0.856222152709961,1,horizontal,horizontal,1,0.835290050506592,green,4,1,574.848363820974,480.284751489598,680.284751489598,825.151636179026,680.284751489598,825.151636179026,1025.15163617903,719.715248510402,919.715248510402,374.848363820974,574.848363820974,480.284751489598,0,0,0,0,0,0,0,4,NaN,NaN,vertical,horizontal,vertical,horizontal,none,none
1c,13,100152,4,16,208,19,F,NA,variable,homogeneous,3,absent,0.667738914489746,1,horizontal,horizontal,1,0.705880522727966,green,1,NaN,607.549057043193,767.295052392579,NaN,NaN,607.549057043193,767.295052392579,1041.10723677783,683.019879386575,751.343706178981,349.685068220846,0,0,0,0,0,0,4,0,0,NaN,NaN,NaN,horizontal,horizontal,horizontal,none,none,none
1c,13,100152,4,17,209,19,F,NA,variable,homogeneous,6,absent,0.57410192489624,1,horizontal,horizontal,1,0.647058010101318,green,1,NaN,857.362518857686,848.464366520235,NaN,NaN,857.362518857686,848.464366520235,1043.85771277057,674.554784704298,986.495193912888,426.090418184063,742.637481142314,351.535633479765,556.142287229426,525.445215295702,613.504806087112,773.909581815937,4,0,0,0,0,0,horizontal,horizontal,horizontal,horizontal,horizontal,horizontal
1c,13,100152,4,18,210,19,F,NA,variable,homogeneous,6,absent,0.641491889953613,1,horizontal,horizontal,1,1.01175758838654,red,6,NaN,622.862115532956,783.431649086356,NaN,NaN,870.287525733335,845.121732464271,1047.42541020038,661.690083377915,977.137884467044,416.568350913644,729.712474266665,354.878267535729,552.574589799621,538.309916622085,622.862115532956,783.431649086356,0,0,0,0,0,4,vertical,vertical,horizontal,vertical,vertical,horizontal
1c,13,100152,4,19,211,19,F,NA,variable,homogeneous,4,present,0.695071935653687,1,vertical,vertical,1,0.811761045455933,green,1,2,672.5,820.836477965032,1020.83647796503,727.5,672.5,820.836477965032,1020.83647796503,727.5,927.5,379.163522034968,579.163522034968,472.5,0,0,0,0,4,0,0,0,NaN,NaN,vertical,vertical,horizontal,horizontal,none,none
1c,13,100152,4,20,212,19,F,NA,variable,homogeneous,6,present,0.694568872451782,1,horizontal,horizontal,1,0.87058355808258,red,3,1,1027.20666366803,484.232422566416,786.654331158049,854.650531362416,786.654331158049,854.650531362416,1013.86099482608,738.882953928832,1027.20666366803,484.232422566416,813.345668841951,345.349468637584,586.139005173917,461.117046071168,572.793336331966,715.767577433584,0,0,4,0,0,0,horizontal,vertical,horizontal,vertical,horizontal,vertical
1c,13,100152,4,21,213,19,F,NA,variable,homogeneous,6,present,0.610665082931519,1,vertical,vertical,1,0.88234806060791,green,1,6,692.232343256122,831.108485694346,545.970351986605,622.224714400653,692.232343256122,831.108485694346,946.261991269517,808.883771293693,1054.0296480134,577.775285599347,907.767656743878,368.891514305654,653.738008730483,391.116228706307,545.970351986605,622.224714400653,4,0,0,0,0,0,vertical,vertical,vertical,horizontal,horizontal,vertical
1c,13,100152,4,22,214,19,F,NA,variable,homogeneous,3,present,0.820403099060059,1,vertical,vertical,1,0.87058355808258,red,1,3,680.284751489598,825.151636179026,664.870587620533,383.747735480111,680.284751489598,825.151636179026,1054.84466088987,591.100628340862,664.870587620533,383.747735480111,0,0,0,0,0,0,4,0,0,NaN,NaN,NaN,vertical,horizontal,vertical,none,none,none
1c,13,100152,4,23,215,19,F,NA,variable,homogeneous,3,present,0.578057050704956,1,horizontal,horizontal,1,1.05881559848785,red,3,2,545.03883773512,595.549636358493,931.334709102064,381.422338320961,923.626453162816,823.028025320546,931.334709102064,381.422338320961,545.03883773512,595.549636358493,0,0,0,0,0,0,0,0,4,NaN,NaN,NaN,horizontal,horizontal,horizontal,none,none,none
1c,13,100152,4,24,216,19,F,NA,variable,homogeneous,5,absent,0.682590007781982,1,vertical,vertical,1,1.03528659343719,green,5,NaN,565.271262369628,699.636437764765,NaN,NaN,822.224714400653,854.029648013395,1048.46436652023,657.362518857686,931.334709102064,381.422338320961,632.704947607421,407.549057043193,565.271262369628,699.636437764765,0,0,0,0,0,0,4,NaN,horizontal,horizontal,horizontal,vertical,vertical,none
1c,13,100152,4,25,217,19,F,NA,variable,homogeneous,4,absent,0.653267860412598,1,vertical,vertical,1,1.04705109596252,green,2,NaN,1031.10848569435,492.232343256122,NaN,NaN,907.767656743878,831.108485694346,1031.10848569435,492.232343256122,692.232343256122,368.891514305654,568.891514305654,707.767656743878,0,0,0,0,0,4,0,0,NaN,NaN,vertical,vertical,horizontal,vertical,none,none
1c,13,100152,4,26,218,19,F,NA,variable,homogeneous,6,absent,1.16776204109192,1,horizontal,horizontal,1,0.658822512626648,green,4,NaN,795.549636358493,345.03883773512,NaN,NaN,804.450363641507,854.96116226488,1023.02802532055,723.626453162816,1018.57766167904,468.665290897936,795.549636358493,345.03883773512,576.971974679454,476.373546837184,581.422338320961,731.334709102064,0,0,0,4,0,0,vertical,vertical,horizontal,horizontal,horizontal,horizontal
1c,13,100152,4,27,219,19,F,NA,variable,homogeneous,6,absent,0.561264991760254,1,vertical,vertical,1,0.89411256313324,green,5,NaN,545.349468637584,586.654331158049,NaN,NaN,915.767577433584,827.206663668034,1054.65053136242,613.345668841951,938.882953928832,386.139005173917,684.232422566416,372.793336331966,545.349468637584,586.654331158049,661.117046071168,813.860994826083,0,0,0,0,4,0,vertical,horizontal,vertical,horizontal,vertical,horizontal
1c,13,100152,4,28,220,19,F,NA,variable,homogeneous,5,present,0.796824932098389,1,vertical,vertical,1,0.6,green,5,3,579.163522034968,727.5,903.717843984329,367.045908301137,853.017481158529,849.42763818712,1053.60308331891,626.654758133252,903.717843984329,367.045908301137,610.498069503264,429.371695378491,579.163522034968,727.5,0,0,0,0,0,0,4,NaN,horizontal,vertical,vertical,horizontal,vertical,none
1c,13,100152,4,29,221,19,F,NA,variable,homogeneous,3,present,0.522670984268188,1,vertical,vertical,1,0.705880522727966,green,2,1,878.799333565612,357.480588344736,970.628304621509,789.501930496736,970.628304621509,789.501930496736,878.799333565612,357.480588344736,550.57236181288,653.017481158529,0,0,0,0,0,0,0,4,0,NaN,NaN,NaN,vertical,vertical,horizontal,none,none,none
1c,13,100152,4,30,222,19,F,NA,variable,homogeneous,6,absent,0.721492052078247,1,horizontal,horizontal,1,1.02352209091187,red,6,NaN,650.114760665419,806.299333565612,NaN,NaN,903.717843984329,832.954091698863,1053.60308331891,626.654758133252,949.885239334581,393.700666434388,696.282156015671,367.045908301137,546.39691668109,573.345241866748,650.114760665419,806.299333565612,0,0,0,0,0,4,horizontal,vertical,horizontal,vertical,vertical,horizontal
1c,13,100152,4,31,223,19,F,NA,variable,homogeneous,6,present,0.522627830505371,1,vertical,vertical,1,0.717645025253296,red,4,5,915.767577433584,372.793336331966,661.117046071168,386.139005173917,684.232422566416,827.206663668034,938.882953928832,813.860994826083,1054.65053136242,586.654331158049,915.767577433584,372.793336331966,661.117046071168,386.139005173917,545.349468637584,613.345668841951,0,0,0,4,0,0,horizontal,vertical,vertical,vertical,vertical,vertical
1c,13,100152,4,32,224,19,F,NA,variable,homogeneous,3,present,0.556562900543213,1,horizontal,horizontal,1,0.964699578285217,green,2,3,1008.88377129369,453.738008730483,568.891514305654,492.232343256122,822.224714400653,854.029648013395,1008.88377129369,453.738008730483,568.891514305654,492.232343256122,0,0,0,0,0,0,0,4,0,NaN,NaN,NaN,vertical,horizontal,horizontal,none,none,none
1c,13,100152,4,33,225,19,F,NA,variable,homogeneous,5,present,1.31095099449158,1,vertical,vertical,1,0.752938532829285,red,2,5,1054.37883281626,617.787900804752,583.747735480111,735.129412379467,861.690083377915,847.425410200379,1054.37883281626,617.787900804752,895.524681321058,363.568117085469,604.658667004661,436.089159529932,583.747735480111,735.129412379467,0,0,0,4,0,0,0,NaN,vertical,vertical,vertical,horizontal,horizontal,none
1c,13,100152,4,34,226,19,F,NA,variable,homogeneous,5,present,1.17339491844177,1,horizontal,horizontal,1,1.01175758838654,green,3,2,903.717843984329,367.045908301137,1053.60308331891,626.654758133252,853.017481158529,849.42763818712,1053.60308331891,626.654758133252,903.717843984329,367.045908301137,610.498069503264,429.371695378491,579.163522034968,727.5,0,0,0,0,4,0,0,NaN,vertical,horizontal,horizontal,vertical,horizontal,none
1c,13,100152,4,35,227,19,F,NA,variable,homogeneous,3,present,0.637623071670532,1,vertical,vertical,1,1.02352209091187,green,2,1,1053.60308331891,626.654758133252,650.114760665419,806.299333565612,650.114760665419,806.299333565612,1053.60308331891,626.654758133252,696.282156015671,367.045908301137,0,0,0,0,0,0,0,4,0,NaN,NaN,NaN,horizontal,vertical,horizontal,none,none,none
1c,13,100152,4,36,228,19,F,NA,variable,homogeneous,5,absent,0.659860849380493,1,horizontal,horizontal,1,0.658822512626648,green,2,NaN,1048.46436652023,657.362518857686,NaN,NaN,822.224714400653,854.029648013395,1048.46436652023,657.362518857686,931.334709102064,381.422338320961,632.704947607421,407.549057043193,565.271262369628,699.636437764765,0,0,0,4,0,0,0,NaN,horizontal,horizontal,vertical,horizontal,horizontal,none
1c,13,100152,4,37,229,19,F,NA,variable,homogeneous,3,present,0.738351106643677,1,vertical,vertical,1,0.858819055557251,red,3,2,607.549057043193,432.704947607421,1041.10723677783,516.980120613425,751.343706178981,850.314931779154,1041.10723677783,516.980120613425,607.549057043193,432.704947607421,0,0,0,0,0,0,0,0,4,NaN,NaN,NaN,horizontal,vertical,vertical,none,none,none
1c,13,100152,4,38,230,19,F,NA,variable,homogeneous,5,present,0.826297998428345,1,horizontal,horizontal,1,0.858819055557251,green,4,1,712.784863451954,360.378381699593,729.712474266665,845.121732464271,729.712474266665,845.121732464271,1011.40458100154,742.594190385041,1000.94274216971,443.006323791957,712.784863451954,360.378381699593,545.155339110131,608.899371659138,0,0,0,0,0,4,0,NaN,horizontal,horizontal,horizontal,horizontal,horizontal,none
1c,13,100152,4,39,231,19,F,NA,variable,homogeneous,4,present,0.769515991210938,1,horizontal,horizontal,1,0.917641568183899,red,2,4,1045.12173246427,670.287525733335,554.878267535729,529.712474266665,729.712474266665,845.121732464271,1045.12173246427,670.287525733335,870.287525733335,354.878267535729,554.878267535729,529.712474266665,0,0,0,0,0,4,0,0,NaN,NaN,vertical,horizontal,vertical,horizontal,none,none
1c,13,100152,4,40,232,19,F,NA,variable,homogeneous,4,absent,1.23547101020813,1,horizontal,horizontal,1,0.917641568183899,green,1,NaN,826.654758133252,853.60308331891,NaN,NaN,826.654758133252,853.60308331891,1053.60308331891,573.345241866748,773.345241866748,346.39691668109,546.39691668109,626.654758133252,0,0,0,0,4,0,0,0,NaN,NaN,horizontal,horizontal,horizontal,vertical,none,none
1c,13,100152,4,41,233,19,F,NA,variable,homogeneous,6,absent,0.94836688041687,1,vertical,vertical,1,0.999993085861206,red,6,NaN,551.535633479765,657.362518857686,NaN,NaN,725.445215295702,843.857712770574,973.909581815937,786.495193912888,1048.46436652023,542.637481142314,874.554784704298,356.142287229426,626.090418184063,413.504806087112,551.535633479765,657.362518857686,0,0,0,0,0,4,vertical,vertical,horizontal,vertical,horizontal,vertical
1c,13,100152,4,42,234,19,F,NA,variable,homogeneous,6,present,0.808297157287598,1,vertical,vertical,1,0.835290050506592,green,4,6,782.212099195248,345.621167183745,588.595418998464,742.594190385041,817.787900804752,854.378832816255,1029.19248180629,711.784642431215,1011.40458100154,457.40580961496,782.212099195248,345.621167183745,570.807518193712,488.215357568785,588.595418998464,742.594190385041,0,0,0,4,0,0,horizontal,horizontal,horizontal,vertical,vertical,horizontal
1c,13,100152,4,43,235,19,F,NA,variable,homogeneous,4,present,0.64968204498291,1,horizontal,horizontal,1,1.05881559848785,green,1,4,672.5,820.836477965032,579.163522034968,472.5,672.5,820.836477965032,1020.83647796503,727.5,927.5,379.163522034968,579.163522034968,472.5,0,0,0,0,4,0,0,0,NaN,NaN,horizontal,horizontal,horizontal,horizontal,none,none
1c,13,100152,4,44,236,19,F,NA,variable,homogeneous,4,present,0.783401966094971,1,vertical,vertical,1,0.823525547981262,red,1,4,629.371695378491,789.501930496736,610.498069503264,429.371695378491,629.371695378491,789.501930496736,989.501930496736,770.628304621509,970.628304621509,410.498069503264,610.498069503264,429.371695378491,0,0,0,0,4,0,0,0,NaN,NaN,vertical,vertical,vertical,vertical,none,none
1c,13,100152,4,45,237,19,F,NA,variable,homogeneous,4,absent,0.59801983833313,1,horizontal,horizontal,1,0.941170573234558,red,4,NaN,545.155339110131,608.899371659138,NaN,NaN,808.899371659138,854.844660889869,1054.84466088987,591.100628340862,791.100628340862,345.155339110131,545.155339110131,608.899371659138,0,0,0,0,0,0,0,4,NaN,NaN,vertical,vertical,vertical,horizontal,none,none
1c,13,100152,4,46,238,19,F,NA,variable,homogeneous,3,absent,0.565882921218872,1,vertical,vertical,1,0.6,red,2,NaN,919.715248510402,374.848363820974,NaN,NaN,935.129412379467,816.252264519889,919.715248510402,374.848363820974,545.155339110131,608.899371659138,0,0,0,0,0,0,0,4,0,NaN,NaN,NaN,vertical,vertical,horizontal,none,none,none
1c,13,100152,4,47,239,19,F,NA,variable,homogeneous,5,absent,0.559050798416138,1,vertical,vertical,1,1.07058010101318,red,3,NaN,853.017481158529,350.57236181288,NaN,NaN,903.717843984329,832.954091698863,1053.60308331891,573.345241866748,853.017481158529,350.57236181288,579.163522034968,472.5,610.498069503264,770.628304621509,0,0,0,0,4,0,0,NaN,horizontal,vertical,vertical,horizontal,vertical,none
1c,13,100152,4,48,240,19,F,NA,variable,homogeneous,5,present,0.592901945114136,1,horizontal,horizontal,1,0.729409527778625,red,5,2,560.378381699593,687.215136548046,1045.12173246427,670.287525733335,808.899371659138,854.844660889869,1045.12173246427,670.287525733335,942.594190385041,388.595418998464,643.006323791957,399.057257830286,560.378381699593,687.215136548046,0,0,0,0,0,0,4,NaN,vertical,horizontal,vertical,horizontal,horizontal,none
1c,13,100152,4,49,241,19,F,NA,variable,homogeneous,6,present,0.622601985931396,1,horizontal,horizontal,1,0.88234806060791,green,2,6,1054.96116226488,604.450363641507,668.665290897936,818.577661679039,923.626453162816,823.028025320546,1054.96116226488,604.450363641507,931.334709102064,381.422338320961,676.373546837184,376.971974679454,545.03883773512,595.549636358493,668.665290897936,818.577661679039,0,4,0,0,0,0,vertical,horizontal,vertical,horizontal,vertical,vertical
1c,13,100152,4,50,242,19,F,NA,variable,homogeneous,5,present,0.884113073348999,1,vertical,vertical,1,1.04705109596252,red,2,4,989.501930496736,770.628304621509,746.982518841471,350.57236181288,696.282156015671,832.954091698863,989.501930496736,770.628304621509,1020.83647796503,472.5,746.982518841471,350.57236181288,546.39691668109,573.345241866748,0,0,0,4,0,0,0,NaN,vertical,vertical,horizontal,horizontal,horizontal,none
1c,13,100152,4,51,243,19,F,NA,variable,homogeneous,6,absent,0.616117000579834,1,vertical,vertical,1,1.09410910606384,red,4,NaN,777.775285599347,345.970351986605,NaN,NaN,822.224714400653,854.029648013395,1031.10848569435,707.767656743878,1008.88377129369,453.738008730483,777.775285599347,345.970351986605,568.891514305654,492.232343256122,591.116228706307,746.261991269517,0,0,0,4,0,0,vertical,horizontal,horizontal,vertical,horizontal,vertical
1c,13,100152,4,52,244,19,F,NA,variable,homogeneous,4,absent,0.533744096755981,1,horizontal,horizontal,1,0.858819055557251,green,3,NaN,874.554784704298,356.142287229426,NaN,NaN,725.445215295702,843.857712770574,1043.85771277057,674.554784704298,874.554784704298,356.142287229426,556.142287229426,525.445215295702,0,0,0,0,0,0,4,0,NaN,NaN,horizontal,vertical,horizontal,vertical,none,none
1c,13,100152,4,53,245,19,F,NA,variable,homogeneous,5,present,0.667393922805786,1,horizontal,horizontal,1,0.941170573234558,red,4,1,688.215357568785,370.807518193712,755.719714694933,851.125977018113,755.719714694933,851.125977018113,1025.15163617903,719.715248510402,983.431649086356,422.862115532956,688.215357568785,370.807518193712,547.481642470899,635.489140744817,0,0,0,0,0,4,0,NaN,horizontal,vertical,vertical,horizontal,vertical,none
