experiment,subject,uniqueID,block,trial,trial_cumulative,age,gender,color_cond_blocking,color_history,shape_type,set_size,distractor,rt,acc,target_orient,response_key,response_made,iti,target_color,target_item,distractor_item,target_X,target_Y,distractor_X,distractor_Y,item1_X,item1_Y,item2_X,item2_Y,item3_X,item3_Y,item4_X,item4_Y,item5_X,item5_Y,item6_X,item6_Y,item1_shape,item2_shape,item3_shape,item4_shape,item5_shape,item6_shape,item1_line,item2_line,item3_line,item4_line,item5_line,item6_line
1c,14,100151,1,1,1,20,F,NA,variable,homogeneous,6,present,0.764033079147339,1,horizontal,horizontal,1,1.02352277755737,green,5,2,550.57236181288,546.982518841471,1049.42763818712,653.017481158529,878.799333565612,842.519411655264,1049.42763818712,653.017481158529,970.628304621509,410.498069503264,721.200666434388,357.480588344736,550.57236181288,546.982518841471,629.371695378491,789.501930496736,0,0,0,0,4,0,horizontal,horizontal,horizontal,vertical,horizontal,horizontal
1c,14,100151,1,2,2,20,F,NA,variable,homogeneous,6,absent,0.646263122558594,1,vertical,vertical,1,0.941171126365662,red,5,NaN,632.704947607421,407.549057043193,NaN,NaN,716.980120613425,841.107236777826,967.295052392579,792.450942956807,1050.31493177915,551.343706178981,883.019879386575,358.892763222174,632.704947607421,407.549057043193,549.685068220846,648.656293821019,0,0,0,0,4,0,horizontal,horizontal,vertical,horizontal,vertical,vertical
1c,14,100151,1,3,3,20,F,NA,variable,homogeneous,5,absent,0.861371994018555,1,vertical,vertical,1,0.91764208316803,green,2,NaN,963.910840470068,795.341332995339,NaN,NaN,664.870587620533,816.252264519889,963.910840470068,795.341332995339,1036.43188291453,504.475318678942,782.212099195248,345.621167183745,552.574589799621,538.309916622085,0,0,0,4,0,0,0,NaN,horizontal,vertical,vertical,horizontal,horizontal,none
1c,14,100151,1,4,4,20,F,NA,variable,homogeneous,6,present,0.54497218132019,1,vertical,vertical,1,1.09410990715027,red,2,5,1011.40458100154,742.594190385041,588.595418998464,457.40580961496,782.212099195248,854.378832816255,1011.40458100154,742.594190385041,1029.19248180629,488.215357568785,817.787900804752,345.621167183745,588.595418998464,457.40580961496,570.807518193712,711.784642431215,0,4,0,0,0,0,vertical,vertical,horizontal,vertical,vertical,horizontal
1c,14,100151,1,5,5,20,F,NA,variable,homogeneous,6,absent,0.735860109329224,1,vertical,vertical,1,0.6,red,3,NaN,1038.06300875679,508.616172865948,NaN,NaN,760.109211414741,851.86052685176,998.172220171528,760.476699717708,1038.06300875679,508.616172865948,839.890788585259,348.13947314824,601.827779828472,439.523300282291,561.936991243214,691.383827134052,0,0,4,0,0,0,vertical,vertical,vertical,horizontal,vertical,vertical
1c,14,100151,1,6,6,20,F,NA,variable,homogeneous,5,absent,0.633409976959229,1,horizontal,horizontal,1,0.929406604766846,red,4,NaN,588.595418998464,457.40580961496,NaN,NaN,887.215136548046,839.621618300407,1054.84466088987,591.100628340862,870.287525733335,354.878267535729,588.595418998464,457.40580961496,599.057257830286,756.993676208043,0,0,0,0,0,4,0,NaN,horizontal,horizontal,vertical,horizontal,horizontal,none
1c,14,100151,1,7,7,20,F,NA,variable,homogeneous,6,present,0.751091003417969,1,vertical,vertical,1,0.847054953575134,green,1,6,839.890788585259,851.86052685176,601.827779828472,760.476699717708,839.890788585259,851.86052685176,1038.06300875679,691.383827134052,998.172220171528,439.523300282291,760.109211414741,348.13947314824,561.936991243214,508.616172865948,601.827779828472,760.476699717708,4,0,0,0,0,0,vertical,vertical,horizontal,vertical,horizontal,horizontal
1c,14,100151,1,8,8,20,F,NA,variable,homogeneous,3,absent,0.829150915145874,1,horizontal,horizontal,1,0.752938780784607,red,3,NaN,583.747735480111,464.870587620533,NaN,NaN,791.100628340862,854.844660889869,1025.15163617903,480.284751489598,583.747735480111,464.870587620533,0,0,0,0,0,0,0,0,4,NaN,NaN,NaN,horizontal,vertical,horizontal,none,none,none
1c,14,100151,1,9,9,20,F,NA,variable,homogeneous,4,absent,0.48188304901123,1,vertical,vertical,1,0.999993734359741,red,4,NaN,545.970351986605,622.224714400653,NaN,NaN,822.224714400653,854.029648013395,1054.0296480134,577.775285599347,777.775285599347,345.970351986605,545.970351986605,622.224714400653,0,0,0,0,0,0,0,4,NaN,NaN,vertical,vertical,vertical,vertical,none,none
1c,14,100151,1,10,10,20,F,NA,variable,homogeneous,5,absent,0.60733699798584,0,horizontal,vertical,1,1.01175825595856,green,2,NaN,1031.10848569435,707.767656743878,NaN,NaN,768.923317431687,853.099268668537,1031.10848569435,707.767656743878,973.909581815937,413.504806087112,676.373546837184,376.971974679454,549.685068220846,648.656293821019,0,0,0,4,0,0,0,NaN,horizontal,horizontal,vertical,vertical,horizontal,none
1c,14,100151,1,11,11,20,F,NA,variable,homogeneous,4,present,1.03667187690735,1,horizontal,horizontal,1,0.623529043197632,red,1,3,742.637481142314,848.464366520235,857.362518857686,351.535633479765,742.637481142314,848.464366520235,1048.46436652023,657.362518857686,857.362518857686,351.535633479765,551.535633479765,542.637481142314,0,0,0,0,4,0,0,0,NaN,NaN,horizontal,horizontal,vertical,vertical,none,none
1c,14,100151,1,12,12,20,F,NA,variable,homogeneous,4,present,0.623239994049072,1,vertical,vertical,1,0.870583996772766,red,1,4,938.882953928832,813.860994826083,586.139005173917,738.882953928832,938.882953928832,813.860994826083,1013.86099482608,461.117046071168,661.117046071168,386.139005173917,586.139005173917,738.882953928832,0,0,0,0,4,0,0,0,NaN,NaN,vertical,horizontal,vertical,vertical,none,none
1c,14,100151,1,13,13,20,F,NA,variable,homogeneous,4,absent,0.665983200073242,1,vertical,vertical,1,0.905877561569214,green,4,NaN,607.549057043193,767.295052392579,NaN,NaN,967.295052392579,792.450942956807,992.450942956807,432.704947607421,632.704947607421,407.549057043193,607.549057043193,767.295052392579,0,0,0,0,0,0,0,4,NaN,NaN,horizontal,horizontal,vertical,vertical,none,none
1c,14,100151,1,14,14,20,F,NA,variable,homogeneous,4,absent,0.736640930175781,1,horizontal,horizontal,1,0.85881947517395,red,2,NaN,1032.95409169886,703.717843984329,NaN,NaN,696.282156015671,832.954091698863,1032.95409169886,703.717843984329,903.717843984329,367.045908301137,567.045908301137,496.282156015671,0,0,0,0,0,4,0,0,NaN,NaN,horizontal,horizontal,horizontal,horizontal,none,none
1c,14,100151,1,15,15,20,F,NA,variable,homogeneous,5,absent,1.10930609703064,1,vertical,vertical,1,1.09410990715027,red,3,NaN,977.137884467044,416.568350913644,NaN,NaN,764.510859255183,852.518357529101,1029.19248180629,711.784642431215,977.137884467044,416.568350913644,680.284751489598,374.848363820974,548.874022981887,644.280285305067,0,0,0,0,4,0,0,NaN,horizontal,vertical,vertical,vertical,vertical,none
1c,14,100151,1,16,16,20,F,NA,variable,homogeneous,6,absent,0.684184074401855,1,horizontal,horizontal,1,1.03528729915619,green,1,NaN,716.980120613425,841.107236777826,NaN,NaN,716.980120613425,841.107236777826,967.295052392579,792.450942956807,1050.31493177915,551.343706178981,883.019879386575,358.892763222174,632.704947607421,407.549057043193,549.685068220846,648.656293821019,4,0,0,0,0,0,horizontal,horizontal,horizontal,horizontal,vertical,horizontal
1c,14,100151,1,17,17,20,F,NA,variable,homogeneous,5,present,0.995703935623169,1,horizontal,horizontal,1,0.65882260799408,red,2,3,1043.85771277057,525.445215295702,804.450363641507,345.03883773512,946.261991269517,808.883771293693,1043.85771277057,525.445215295702,804.450363641507,345.03883773512,558.892763222174,516.980120613425,646.537169096228,803.65205506206,0,0,0,4,0,0,0,NaN,vertical,horizontal,vertical,vertical,horizontal,none
1c,14,100151,1,18,18,20,F,NA,variable,homogeneous,5,present,0.730139017105103,1,vertical,vertical,1,0.929406604766846,green,3,2,931.334709102064,381.422338320961,1048.46436652023,657.362518857686,822.224714400653,854.029648013395,1048.46436652023,657.362518857686,931.334709102064,381.422338320961,632.704947607421,407.549057043193,565.271262369628,699.636437764765,0,0,0,0,4,0,0,NaN,vertical,horizontal,vertical,horizontal,vertical,none
1c,14,100151,1,19,19,20,F,NA,variable,homogeneous,3,present,0.64924693107605,1,vertical,vertical,1,0.811761388778687,red,3,1,545.970351986605,577.775285599347,907.767656743878,831.108485694346,907.767656743878,831.108485694346,946.261991269517,391.116228706307,545.970351986605,577.775285599347,0,0,0,0,0,0,0,0,4,NaN,NaN,NaN,horizontal,vertical,vertical,none,none,none
1c,14,100151,1,20,20,20,F,NA,variable,homogeneous,6,absent,0.723636150360107,1,vertical,vertical,1,1.05881634235382,green,3,NaN,949.885239334581,393.700666434388,NaN,NaN,903.717843984329,832.954091698863,1053.60308331891,626.654758133252,949.885239334581,393.700666434388,696.282156015671,367.045908301137,546.39691668109,573.345241866748,650.114760665419,806.299333565612,0,0,4,0,0,0,vertical,vertical,vertical,horizontal,horizontal,vertical
1c,14,100151,1,21,21,20,F,NA,variable,homogeneous,3,absent,0.671910047531128,1,horizontal,horizontal,1,0.682351651191711,red,3,NaN,560.378381699593,512.784863451954,NaN,NaN,844.280285305067,851.125977018113,995.341332995339,436.089159529932,560.378381699593,512.784863451954,0,0,0,0,0,0,0,0,4,NaN,NaN,NaN,horizontal,horizontal,horizontal,none,none,none
1c,14,100151,1,22,22,20,F,NA,variable,homogeneous,6,present,0.807816982269287,1,horizontal,horizontal,1,0.717645215988159,red,1,4,899.636437764765,834.728737630372,700.363562235235,365.271262369628,899.636437764765,834.728737630372,1053.09926866854,631.076682568313,953.462830903772,396.34794493794,700.363562235235,365.271262369628,546.900731331463,568.923317431687,646.537169096228,803.65205506206,4,0,0,0,0,0,horizontal,vertical,horizontal,vertical,horizontal,horizontal
1c,14,100151,1,23,23,20,F,NA,variable,homogeneous,4,present,0.745265007019043,1,horizontal,horizontal,1,1.05881634235382,green,1,4,773.345241866748,853.60308331891,546.39691668109,573.345241866748,773.345241866748,853.60308331891,1053.60308331891,626.654758133252,826.654758133252,346.39691668109,546.39691668109,573.345241866748,0,0,0,0,4,0,0,0,NaN,NaN,horizontal,horizontal,vertical,vertical,none,none
1c,14,100151,1,24,24,20,F,NA,variable,homogeneous,6,present,0.67565393447876,1,horizontal,horizontal,1,0.964700169563294,green,2,6,1039.62161830041,687.215136548046,604.658667004661,763.910840470068,844.280285305067,851.125977018113,1039.62161830041,687.215136548046,995.341332995339,436.089159529932,755.719714694933,348.874022981887,560.378381699593,512.784863451954,604.658667004661,763.910840470068,0,4,0,0,0,0,vertical,horizontal,vertical,vertical,vertical,horizontal
1c,14,100151,1,25,25,20,F,NA,variable,homogeneous,5,present,0.66103196144104,1,vertical,vertical,1,1.01175825595856,green,2,5,1052.5183575291,635.489140744817,574.848363820974,719.715248510402,844.280285305067,851.125977018113,1052.5183575291,635.489140744817,911.784642431215,370.807518193712,616.568350913644,422.862115532956,574.848363820974,719.715248510402,0,0,0,4,0,0,0,NaN,horizontal,vertical,horizontal,horizontal,horizontal,none
1c,14,100151,1,26,26,20,F,NA,variable,homogeneous,5,absent,0.75434398651123,1,vertical,vertical,1,0.964700169563294,green,2,NaN,1045.12173246427,670.287525733335,NaN,NaN,808.899371659138,854.844660889869,1045.12173246427,670.287525733335,942.594190385041,388.595418998464,643.006323791957,399.057257830286,560.378381699593,687.215136548046,0,0,0,4,0,0,0,NaN,horizontal,vertical,vertical,vertical,vertical,none
1c,14,100151,1,27,27,20,F,NA,variable,homogeneous,5,present,0.993028879165649,1,horizontal,horizontal,1,0.964700169563294,green,2,3,1006.29933356561,749.885239334581,1006.29933356561,450.114760665419,721.200666434388,842.519411655264,1006.29933356561,749.885239334581,1006.29933356561,450.114760665419,721.200666434388,357.480588344736,545,600,0,0,0,4,0,0,0,NaN,horizontal,horizontal,vertical,vertical,vertical,none
1c,14,100151,1,28,28,20,F,NA,variable,homogeneous,4,absent,0.59588098526001,1,horizontal,horizontal,1,0.741174259185791,green,4,NaN,561.936991243214,691.383827134052,NaN,NaN,891.383827134052,838.063008756786,1038.06300875679,508.616172865948,708.616172865948,361.936991243214,561.936991243214,691.383827134052,0,0,0,0,0,0,0,4,NaN,NaN,horizontal,horizontal,vertical,horizontal,none,none
1c,14,100151,1,29,29,20,F,NA,variable,homogeneous,5,absent,0.643887996673584,1,horizontal,horizontal,1,0.6,red,2,NaN,1042.51941165526,521.200666434388,NaN,NaN,949.885239334581,806.299333565612,1042.51941165526,521.200666434388,800,345,557.480588344736,521.200666434388,650.114760665419,806.299333565612,0,0,0,4,0,0,0,NaN,vertical,horizontal,vertical,vertical,horizontal,none
1c,14,100151,1,30,30,20,F,NA,variable,homogeneous,4,absent,0.573601007461548,1,horizontal,horizontal,1,0.847054953575134,green,2,NaN,1039.62161830041,512.784863451954,NaN,NaN,887.215136548046,839.621618300407,1039.62161830041,512.784863451954,712.784863451954,360.378381699593,560.378381699593,687.215136548046,0,0,0,0,0,4,0,0,NaN,NaN,horizontal,horizontal,vertical,horizontal,none,none
1c,14,100151,1,31,31,20,F,NA,variable,homogeneous,3,absent,0.615147113800049,1,horizontal,horizontal,1,0.694116172790527,green,3,NaN,742.637481142314,351.535633479765,NaN,NaN,613.504806087112,773.909581815937,1043.85771277057,674.554784704298,742.637481142314,351.535633479765,0,0,0,0,0,0,0,0,4,NaN,NaN,NaN,horizontal,vertical,horizontal,none,none,none
1c,14,100151,1,32,32,20,F,NA,variable,homogeneous,3,absent,0.693334102630615,1,vertical,vertical,1,0.882348518371582,red,2,NaN,1054.65053136242,613.345668841951,NaN,NaN,661.117046071168,813.860994826083,1054.65053136242,613.345668841951,684.232422566416,372.793336331966,0,0,0,0,0,0,0,4,0,NaN,NaN,NaN,horizontal,vertical,horizontal,none,none,none
1c,14,100151,1,33,33,20,F,NA,variable,homogeneous,3,present,0.789380073547363,1,horizontal,horizontal,1,0.894113039970398,red,2,1,1045.12173246427,529.712474266665,738.309916622085,847.425410200379,738.309916622085,847.425410200379,1045.12173246427,529.712474266665,616.568350913644,422.862115532956,0,0,0,0,0,0,0,4,0,NaN,NaN,NaN,horizontal,horizontal,vertical,none,none,none
1c,14,100151,1,34,34,20,F,NA,variable,homogeneous,3,absent,0.693857908248901,1,horizontal,horizontal,1,0.623529043197632,green,1,NaN,692.232343256122,831.108485694346,NaN,NaN,692.232343256122,831.108485694346,1054.0296480134,577.775285599347,653.738008730483,391.116228706307,0,0,0,0,0,0,4,0,0,NaN,NaN,NaN,horizontal,horizontal,horizontal,none,none,none
1c,14,100151,1,35,35,20,F,NA,variable,homogeneous,6,absent,0.657349109649658,1,horizontal,horizontal,1,1.05881634235382,green,6,NaN,581.422338320961,731.334709102064,NaN,NaN,804.450363641507,854.96116226488,1023.02802532055,723.626453162816,1018.57766167904,468.665290897936,795.549636358493,345.03883773512,576.971974679454,476.373546837184,581.422338320961,731.334709102064,0,0,0,0,0,4,horizontal,vertical,vertical,vertical,horizontal,horizontal
1c,14,100151,1,36,36,20,F,NA,variable,homogeneous,5,present,0.622903108596802,1,vertical,vertical,1,0.611764521598816,red,2,4,949.885239334581,806.299333565612,800,345,650.114760665419,806.299333565612,949.885239334581,806.299333565612,1042.51941165526,521.200666434388,800,345,557.480588344736,521.200666434388,0,0,0,4,0,0,0,NaN,horizontal,vertical,horizontal,horizontal,vertical,none
1c,14,100151,1,37,37,20,F,NA,variable,homogeneous,6,present,0.655932188034058,1,vertical,vertical,1,0.611764521598816,red,1,4,800,855,800,345,800,855,1020.83647796503,727.5,1020.83647796503,472.5,800,345,579.163522034968,472.5,579.163522034968,727.5,4,0,0,0,0,0,vertical,vertical,horizontal,horizontal,horizontal,horizontal
1c,14,100151,1,38,38,20,F,NA,variable,homogeneous,5,absent,0.595466136932373,1,horizontal,horizontal,1,0.729409737586975,green,5,NaN,548.874022981887,555.719714694933,NaN,NaN,680.284751489598,825.151636179026,977.137884467044,783.431649086356,1029.19248180629,488.215357568785,764.510859255183,347.4816424709,548.874022981887,555.719714694933,0,0,0,0,0,0,4,NaN,vertical,vertical,vertical,vertical,horizontal,none
1c,14,100151,1,39,39,20,F,NA,variable,homogeneous,6,present,0.984347105026245,1,vertical,vertical,1,0.835290431976318,green,1,6,700.363562235235,834.728737630372,546.900731331463,631.076682568313,700.363562235235,834.728737630372,953.462830903772,803.65205506206,1053.09926866854,568.923317431687,899.636437764765,365.271262369628,646.537169096228,396.34794493794,546.900731331463,631.076682568313,4,0,0,0,0,0,vertical,horizontal,horizontal,vertical,horizontal,vertical
1c,14,100151,1,40,40,20,F,NA,variable,homogeneous,3,present,0.56604790687561,1,horizontal,horizontal,1,0.694116172790527,green,3,1,616.568350913644,422.862115532956,738.309916622085,847.425410200379,738.309916622085,847.425410200379,1045.12173246427,529.712474266665,616.568350913644,422.862115532956,0,0,0,0,0,0,0,0,4,NaN,NaN,NaN,horizontal,horizontal,horizontal,none,none,none
1c,14,100151,1,41,41,20,F,NA,variable,homogeneous,5,present,0.65419602394104,1,horizontal,horizontal,1,0.823525910377502,green,3,1,942.594190385041,388.595418998464,808.899371659138,854.844660889869,808.899371659138,854.844660889869,1045.12173246427,670.287525733335,942.594190385041,388.595418998464,643.006323791957,399.057257830286,560.378381699593,687.215136548046,0,0,0,0,4,0,0,NaN,vertical,vertical,horizontal,horizontal,horizontal,none
1c,14,100151,1,42,42,20,F,NA,variable,homogeneous,3,absent,0.665654897689819,1,vertical,vertical,1,0.929406604766846,green,1,NaN,899.636437764765,834.728737630372,NaN,NaN,899.636437764765,834.728737630372,953.462830903772,396.34794493794,546.900731331463,568.923317431687,0,0,0,0,0,0,4,0,0,NaN,NaN,NaN,vertical,vertical,horizontal,none,none,none
1c,14,100151,1,43,43,20,F,NA,variable,homogeneous,3,present,0.674192190170288,1,vertical,vertical,1,0.952935647964477,green,2,3,813.345668841951,345.349468637584,572.793336331966,715.767577433584,1013.86099482608,738.882953928832,813.345668841951,345.349468637584,572.793336331966,715.767577433584,0,0,0,0,0,0,0,4,0,NaN,NaN,NaN,horizontal,vertical,vertical,none,none,none
1c,14,100151,1,44,44,20,F,NA,variable,homogeneous,4,present,0.909134864807129,1,vertical,vertical,1,0.85881947517395,green,3,4,653.738008730483,391.116228706307,591.116228706307,746.261991269517,946.261991269517,808.883771293693,1008.88377129369,453.738008730483,653.738008730483,391.116228706307,591.116228706307,746.261991269517,0,0,0,0,0,0,4,0,NaN,NaN,vertical,horizontal,vertical,vertical,none,none
1c,14,100151,1,45,45,20,F,NA,variable,homogeneous,6,absent,0.595477104187012,1,horizontal,horizontal,1,1.01175825595856,red,2,NaN,1006.29933356561,749.885239334581,NaN,NaN,773.345241866748,853.60308331891,1006.29933356561,749.885239334581,1032.95409169886,496.282156015671,826.654758133252,346.39691668109,593.700666434388,450.114760665419,567.045908301137,703.717843984329,0,4,0,0,0,0,vertical,horizontal,horizontal,horizontal,horizontal,horizontal
1c,14,100151,1,46,46,20,F,NA,variable,homogeneous,5,absent,0.779339075088501,1,vertical,vertical,1,0.976464691162109,red,1,NaN,734.001143498857,846.311085703712,NaN,NaN,734.001143498857,846.311085703712,1013.86099482608,738.882953928832,998.172220171528,439.523300282291,708.616172865948,361.936991243214,545.349468637584,613.345668841951,0,0,4,0,0,0,0,NaN,vertical,horizontal,horizontal,horizontal,vertical,none
1c,14,100151,1,47,47,20,F,NA,variable,homogeneous,6,present,0.68802809715271,0,horizontal,vertical,1,1.04705182075501,red,6,3,672.5,820.836477965032,927.5,379.163522034968,927.5,820.836477965032,1055,600,927.5,379.163522034968,672.5,379.163522034968,545,600,672.5,820.836477965032,0,0,0,0,0,4,horizontal,horizontal,vertical,vertical,horizontal,horizontal
1c,14,100151,1,48,48,20,F,NA,variable,homogeneous,6,absent,0.537553071975708,1,horizontal,horizontal,1,0.976464691162109,red,3,NaN,942.594190385041,388.595418998464,NaN,NaN,911.784642431215,829.192481806288,1054.37883281626,617.787900804752,942.594190385041,388.595418998464,688.215357568785,370.807518193712,545.621167183745,582.212099195248,657.405809614959,811.404581001536,0,0,4,0,0,0,horizontal,horizontal,horizontal,horizontal,vertical,horizontal
1c,14,100151,1,49,49,20,F,NA,variable,homogeneous,3,present,0.486160039901733,1,horizontal,horizontal,1,0.694116172790527,green,1,3,768.923317431687,853.099268668537,596.34794493794,446.537169096228,768.923317431687,853.099268668537,1034.72873763037,500.363562235235,596.34794493794,446.537169096228,0,0,0,0,0,0,4,0,0,NaN,NaN,NaN,horizontal,horizontal,vertical,none,none,none
1c,14,100151,1,50,50,20,F,NA,variable,homogeneous,4,absent,0.670789957046509,1,horizontal,horizontal,1,0.729409737586975,red,4,NaN,583.747735480111,464.870587620533,NaN,NaN,664.870587620533,816.252264519889,1016.25226451989,735.129412379467,935.129412379467,383.747735480111,583.747735480111,464.870587620533,0,0,0,0,0,0,0,4,NaN,NaN,vertical,vertical,vertical,horizontal,none,none
1c,14,100151,1,51,51,20,F,NA,variable,homogeneous,3,absent,1.36896586418152,1,vertical,vertical,1,1.03528729915619,red,2,NaN,1036.43188291453,695.524681321058,NaN,NaN,599.057257830286,756.993676208043,1036.43188291453,695.524681321058,764.510859255183,347.4816424709,0,0,0,0,0,0,0,4,0,NaN,NaN,NaN,vertical,vertical,horizontal,none,none,none
1c,14,100151,1,52,52,20,F,NA,variable,homogeneous,6,absent,0.673408031463623,1,vertical,vertical,1,0.823525910377502,green,6,NaN,613.504806087112,773.909581815937,NaN,NaN,857.362518857686,848.464366520235,1043.85771277057,674.554784704298,986.495193912888,426.090418184063,742.637481142314,351.535633479765,556.142287229426,525.445215295702,613.504806087112,773.909581815937,0,0,0,0,0,4,horizontal,horizontal,horizontal,vertical,vertical,vertical
1c,14,100151,1,53,53,20,F,NA,variable,homogeneous,5,present,0.696215152740479,1,vertical,vertical,1,0.670587129592895,red,1,4,786.654331158049,854.650531362416,661.117046071168,386.139005173917,786.654331158049,854.650531362416,1038.06300875679,691.383827134052,960.476699717708,401.827779828472,661.117046071168,386.139005173917,553.688914296288,665.998856501143,0,0,4,0,0,0,0,NaN,vertical,horizontal,horizontal,vertical,vertical,none
1c,14,100151,1,54,54,20,F,NA,variable,homogeneous,3,absent,0.591269016265869,1,vertical,vertical,1,1.04705182075501,green,1,NaN,891.383827134052,838.063008756786,NaN,NaN,891.383827134052,838.063008756786,960.476699717708,401.827779828472,548.13947314824,560.109211414741,0,0,0,0,0,0,4,0,0,NaN,NaN,NaN,vertical,horizontal,horizontal,none,none,none
1c,14,100151,1,55,55,20,F,NA,variable,homogeneous,3,present,0.595495939254761,1,vertical,vertical,1,0.611764521598816,red,1,3,907.767656743878,831.108485694346,545.970351986605,577.775285599347,907.767656743878,831.108485694346,946.261991269517,391.116228706307,545.970351986605,577.775285599347,0,0,0,0,0,0,4,0,0,NaN,NaN,NaN,vertical,horizontal,horizontal,none,none,none
1c,14,100151,1,56,56,20,F,NA,variable,homogeneous,3,present,0.584774017333984,1,horizontal,horizontal,1,1.05881634235382,red,1,2,963.910840470068,795.341332995339,887.215136548046,360.378381699593,963.910840470068,795.341332995339,887.215136548046,360.378381699593,548.874022981887,644.280285305067,0,0,0,0,0,0,4,0,0,NaN,NaN,NaN,horizontal,horizontal,vertical,none,none,none
1c,14,100151,1,57,57,20,F,NA,variable,homogeneous,4,absent,0.57537317276001,1,vertical,vertical,1,0.941171126365662,green,3,NaN,777.775285599347,345.970351986605,NaN,NaN,822.224714400653,854.029648013395,1054.0296480134,577.775285599347,777.775285599347,345.970351986605,545.970351986605,622.224714400653,0,0,0,0,0,0,4,0,NaN,NaN,horizontal,vertical,vertical,horizontal,none,none
1c,14,100151,1,58,58,20,F,NA,variable,homogeneous,4,present,0.696071863174438,1,horizontal,horizontal,1,0.635293564796448,red,1,3,725.445215295702,843.857712770574,874.554784704298,356.142287229426,725.445215295702,843.857712770574,1043.85771277057,674.554784704298,874.554784704298,356.142287229426,556.142287229426,525.445215295702,0,0,0,0,4,0,0,0,NaN,NaN,horizontal,vertical,vertical,vertical,none,none
1c,14,100151,1,59,59,20,F,NA,variable,homogeneous,3,present,0.559885025024414,1,vertical,vertical,1,0.694116172790527,green,1,3,721.200666434388,842.519411655264,629.371695378491,410.498069503264,721.200666434388,842.519411655264,1049.42763818712,546.982518841471,629.371695378491,410.498069503264,0,0,0,0,0,0,4,0,0,NaN,NaN,NaN,vertical,horizontal,vertical,none,none,none
1c,14,100151,1,60,60,20,F,NA,variable,homogeneous,4,present,0.696444034576416,1,vertical,vertical,1,0.65882260799408,green,4,2,599.057257830286,756.993676208043,1000.94274216971,443.006323791957,956.993676208043,800.942742169714,1000.94274216971,443.006323791957,643.006323791957,399.057257830286,599.057257830286,756.993676208043,0,0,0,0,0,0,0,4,NaN,NaN,horizontal,horizontal,horizontal,vertical,none,none
1c,14,100151,1,61,61,20,F,NA,variable,homogeneous,4,absent,0.543689012527466,1,vertical,vertical,1,0.870583996772766,red,2,NaN,1031.10848569435,492.232343256122,NaN,NaN,907.767656743878,831.108485694346,1031.10848569435,492.232343256122,692.232343256122,368.891514305654,568.891514305654,707.767656743878,0,0,0,0,0,4,0,0,NaN,NaN,vertical,vertical,vertical,vertical,none,none
1c,14,100151,1,62,62,20,F,NA,variable,homogeneous,4,present,0.71184515953064,1,horizontal,horizontal,1,0.847054953575134,green,1,2,927.5,820.836477965032,1020.83647796503,472.5,927.5,820.836477965032,1020.83647796503,472.5,672.5,379.163522034968,579.163522034968,727.5,0,0,0,0,4,0,0,0,NaN,NaN,horizontal,vertical,vertical,horizontal,none,none
1c,14,100151,1,63,63,20,F,NA,variable,homogeneous,4,present,0.588715791702271,1,vertical,vertical,1,0.717645215988159,red,2,4,1049.42763818712,653.017481158529,550.57236181288,546.982518841471,746.982518841471,849.42763818712,1049.42763818712,653.017481158529,853.017481158529,350.57236181288,550.57236181288,546.982518841471,0,0,0,0,0,4,0,0,NaN,NaN,vertical,vertical,vertical,vertical,none,none
1c,14,100151,1,64,64,20,F,NA,variable,homogeneous,5,present,0.758230924606323,1,horizontal,horizontal,1,0.670587129592895,red,1,4,919.715248510402,825.151636179026,570.807518193712,488.215357568785,919.715248510402,825.151636179026,1051.12597701811,555.719714694933,835.489140744817,347.4816424709,570.807518193712,488.215357568785,622.862115532956,783.431649086356,0,0,4,0,0,0,0,NaN,horizontal,vertical,vertical,vertical,vertical,none
1c,14,100151,2,1,65,20,F,NA,variable,homogeneous,4,present,0.578253030776978,1,vertical,vertical,1,1.01175825595856,red,2,3,1052.5183575291,635.489140744817,835.489140744817,347.4816424709,764.510859255183,852.518357529101,1052.5183575291,635.489140744817,835.489140744817,347.4816424709,547.481642470899,564.510859255183,0,0,0,0,0,4,0,0,NaN,NaN,horizontal,vertical,vertical,vertical,none,none
1c,14,100151,2,2,66,20,F,NA,variable,homogeneous,5,present,0.701423168182373,1,vertical,vertical,1,0.952935647964477,green,1,5,895.524681321058,836.431882914531,604.658667004661,763.910840470068,895.524681321058,836.431882914531,1054.37883281626,582.212099195248,861.690083377915,352.574589799621,583.747735480111,464.870587620533,604.658667004661,763.910840470068,0,0,4,0,0,0,0,NaN,vertical,vertical,vertical,horizontal,vertical,none
1c,14,100151,2,3,67,20,F,NA,variable,homogeneous,3,present,0.60369086265564,1,vertical,vertical,1,1.02352277755737,green,1,3,586.139005173917,738.882953928832,786.654331158049,345.349468637584,586.139005173917,738.882953928832,1027.20666366803,715.767577433584,786.654331158049,345.349468637584,0,0,0,0,0,0,4,0,0,NaN,NaN,NaN,vertical,horizontal,vertical,none,none,none
1c,14,100151,2,4,68,20,F,NA,variable,homogeneous,6,present,0.65377402305603,1,vertical,vertical,1,0.682351651191711,red,6,5,586.139005173917,738.882953928832,572.793336331966,484.232422566416,813.345668841951,854.650531362416,1027.20666366803,715.767577433584,1013.86099482608,461.117046071168,786.654331158049,345.349468637584,572.793336331966,484.232422566416,586.139005173917,738.882953928832,0,0,0,0,0,4,horizontal,horizontal,vertical,vertical,vertical,vertical
1c,14,100151,2,5,69,20,F,NA,variable,homogeneous,5,absent,0.582237005233765,1,horizontal,horizontal,1,0.964700169563294,red,2,NaN,1054.65053136242,613.345668841951,NaN,NaN,865.998856501143,846.311085703712,1054.65053136242,613.345668841951,891.383827134052,361.936991243214,601.827779828472,439.523300282291,586.139005173917,738.882953928832,0,0,0,4,0,0,0,NaN,vertical,horizontal,vertical,horizontal,horizontal,none
1c,14,100151,2,6,70,20,F,NA,variable,homogeneous,4,present,0.710249185562134,1,horizontal,horizontal,1,1.01175825595856,red,2,4,980.31222920257,419.68777079743,619.68777079743,780.31222920257,980.31222920257,780.31222920257,980.31222920257,419.68777079743,619.68777079743,419.68777079743,619.68777079743,780.31222920257,0,0,0,0,0,4,0,0,NaN,NaN,vertical,horizontal,vertical,vertical,none,none
1c,14,100151,2,7,71,20,F,NA,variable,homogeneous,6,absent,0.822926998138428,1,vertical,vertical,1,0.705880694389343,red,5,NaN,657.405809614959,388.595418998464,NaN,NaN,688.215357568785,829.192481806288,942.594190385041,811.404581001536,1054.37883281626,582.212099195248,911.784642431215,370.807518193712,657.405809614959,388.595418998464,545.621167183745,617.787900804752,0,0,0,0,4,0,vertical,vertical,vertical,vertical,vertical,vertical
1c,14,100151,2,8,72,20,F,NA,variable,homogeneous,6,absent,1.00876808166504,1,horizontal,horizontal,1,0.65882260799408,green,4,NaN,688.215357568785,370.807518193712,NaN,NaN,911.784642431215,829.192481806288,1054.37883281626,617.787900804752,942.594190385041,388.595418998464,688.215357568785,370.807518193712,545.621167183745,582.212099195248,657.405809614959,811.404581001536,0,0,0,4,0,0,vertical,horizontal,vertical,horizontal,vertical,horizontal
1c,14,100151,2,9,73,20,F,NA,variable,homogeneous,5,absent,0.712327003479004,1,vertical,vertical,1,0.964700169563294,green,1,NaN,786.654331158049,854.650531362416,NaN,NaN,786.654331158049,854.650531362416,1038.06300875679,691.383827134052,960.476699717708,401.827779828472,661.117046071168,386.139005173917,553.688914296288,665.998856501143,0,0,4,0,0,0,0,NaN,vertical,vertical,vertical,vertical,vertical,none
1c,14,100151,2,10,74,20,F,NA,variable,homogeneous,3,absent,0.513278007507324,1,vertical,vertical,1,0.729409737586975,green,2,NaN,1054.96116226488,595.549636358493,NaN,NaN,676.373546837184,823.028025320546,1054.96116226488,595.549636358493,668.665290897936,381.422338320961,0,0,0,0,0,0,0,4,0,NaN,NaN,NaN,vertical,vertical,vertical,none,none,none
1c,14,100151,2,11,75,20,F,NA,variable,homogeneous,6,present,0.680945873260498,1,horizontal,horizontal,1,0.65882260799408,green,2,1,1008.88377129369,746.261991269517,777.775285599347,854.029648013395,777.775285599347,854.029648013395,1008.88377129369,746.261991269517,1031.10848569435,492.232343256122,822.224714400653,345.970351986605,591.116228706307,453.738008730483,568.891514305654,707.767656743878,0,4,0,0,0,0,vertical,horizontal,vertical,horizontal,horizontal,horizontal
1c,14,100151,2,12,76,20,F,NA,variable,homogeneous,3,absent,0.606606006622314,1,horizontal,horizontal,1,0.788232345581055,green,2,NaN,808.899371659138,345.155339110131,NaN,NaN,1016.25226451989,735.129412379467,808.899371659138,345.155339110131,574.848363820974,719.715248510402,0,0,0,0,0,0,0,4,0,NaN,NaN,NaN,vertical,horizontal,vertical,none,none,none
1c,14,100151,2,13,77,20,F,NA,variable,homogeneous,4,present,0.719911813735962,1,vertical,vertical,1,0.85881947517395,green,2,4,1032.95409169886,703.717843984329,567.045908301137,496.282156015671,696.282156015671,832.954091698863,1032.95409169886,703.717843984329,903.717843984329,367.045908301137,567.045908301137,496.282156015671,0,0,0,0,0,4,0,0,NaN,NaN,horizontal,vertical,horizontal,vertical,none,none
1c,14,100151,2,14,78,20,F,NA,variable,homogeneous,4,absent,0.888988018035889,1,horizontal,horizontal,1,0.717645215988159,red,1,NaN,874.554784704298,843.857712770574,NaN,NaN,874.554784704298,843.857712770574,1043.85771277057,525.445215295702,725.445215295702,356.142287229426,556.142287229426,674.554784704298,0,0,0,0,4,0,0,0,NaN,NaN,horizontal,vertical,horizontal,vertical,none,none
1c,14,100151,2,15,79,20,F,NA,variable,homogeneous,5,present,1.02534699440002,1,vertical,vertical,1,0.729409737586975,red,4,1,704.475318678942,363.568117085469,738.309916622085,847.425410200379,738.309916622085,847.425410200379,1016.25226451989,735.129412379467,995.341332995339,436.089159529932,704.475318678942,363.568117085469,545.621167183745,617.787900804752,0,0,0,0,0,4,0,NaN,vertical,vertical,horizontal,vertical,vertical,none
1c,14,100151,2,16,80,20,F,NA,variable,homogeneous,6,present,0.607962846755981,1,horizontal,horizontal,1,1.09410990715027,red,4,2,865.998856501143,353.688914296288,980.31222920257,780.31222920257,734.001143498857,846.311085703712,980.31222920257,780.31222920257,1046.31108570371,534.001143498857,865.998856501143,353.688914296288,619.68777079743,419.68777079743,553.688914296288,665.998856501143,0,0,0,4,0,0,horizontal,horizontal,horizontal,horizontal,vertical,vertical
1c,14,100151,2,17,81,20,F,NA,variable,homogeneous,6,present,0.956815958023071,1,vertical,vertical,1,0.623529043197632,red,2,1,1039.62161830041,687.215136548046,844.280285305067,851.125977018113,844.280285305067,851.125977018113,1039.62161830041,687.215136548046,995.341332995339,436.089159529932,755.719714694933,348.874022981887,560.378381699593,512.784863451954,604.658667004661,763.910840470068,0,4,0,0,0,0,horizontal,vertical,horizontal,horizontal,horizontal,horizontal
1c,14,100151,2,18,82,20,F,NA,variable,homogeneous,6,present,0.593816995620728,1,vertical,vertical,1,0.870583996772766,green,4,3,791.100628340862,345.155339110131,1016.25226451989,464.870587620533,808.899371659138,854.844660889869,1025.15163617903,719.715248510402,1016.25226451989,464.870587620533,791.100628340862,345.155339110131,574.848363820974,480.284751489598,583.747735480111,735.129412379467,0,0,0,4,0,0,vertical,vertical,vertical,vertical,vertical,horizontal
1c,14,100151,2,19,83,20,F,NA,variable,homogeneous,5,present,0.758913993835449,1,vertical,vertical,1,1.05881634235382,green,2,4,1054.84466088987,608.899371659138,599.057257830286,443.006323791957,870.287525733335,845.121732464271,1054.84466088987,608.899371659138,887.215136548046,360.378381699593,599.057257830286,443.006323791957,588.595418998464,742.594190385041,0,0,0,4,0,0,0,NaN,horizontal,vertical,horizontal,vertical,vertical,none
1c,14,100151,2,20,84,20,F,NA,variable,homogeneous,3,absent,0.520712852478027,1,horizontal,horizontal,1,0.929406604766846,red,2,NaN,1042.51941165526,678.799333565612,NaN,NaN,610.498069503264,770.628304621509,1042.51941165526,678.799333565612,746.982518841471,350.57236181288,0,0,0,0,0,0,0,4,0,NaN,NaN,NaN,vertical,horizontal,vertical,none,none,none
1c,14,100151,2,21,85,20,F,NA,variable,homogeneous,4,absent,1.23630595207214,0,vertical,horizontal,1,0.65882260799408,red,4,NaN,619.68777079743,780.31222920257,NaN,NaN,980.31222920257,780.31222920257,980.31222920257,419.68777079743,619.68777079743,419.68777079743,619.68777079743,780.31222920257,0,0,0,0,0,0,0,4,NaN,NaN,vertical,horizontal,vertical,vertical,none,none
1c,14,100151,2,22,86,20,F,NA,variable,homogeneous,4,absent,0.758459091186523,1,vertical,vertical,1,0.847054953575134,green,3,NaN,725.445215295702,356.142287229426,NaN,NaN,874.554784704298,843.857712770574,1043.85771277057,525.445215295702,725.445215295702,356.142287229426,556.142287229426,674.554784704298,0,0,0,0,0,0,4,0,NaN,NaN,vertical,vertical,vertical,horizontal,none,none
1c,14,100151,2,23,87,20,F,NA,variable,homogeneous,4,absent,0.478349924087524,1,horizontal,horizontal,1,0.635293564796448,green,2,NaN,1013.86099482608,738.882953928832,NaN,NaN,661.117046071168,813.860994826083,1013.86099482608,738.882953928832,938.882953928832,386.139005173917,586.139005173917,461.117046071168,0,0,0,0,0,4,0,0,NaN,NaN,horizontal,horizontal,vertical,horizontal,none,none
1c,14,100151,2,24,88,20,F,NA,variable,homogeneous,6,absent,0.621028900146484,1,vertical,vertical,1,0.847054953575134,green,2,NaN,1050.31493177915,648.656293821019,NaN,NaN,883.019879386575,841.107236777826,1050.31493177915,648.656293821019,967.295052392579,407.549057043193,716.980120613425,358.892763222174,549.685068220846,551.343706178981,632.704947607421,792.450942956807,0,4,0,0,0,0,horizontal,vertical,horizontal,horizontal,horizontal,vertical
1c,14,100151,2,25,89,20,F,NA,variable,homogeneous,4,absent,0.606487035751343,1,horizontal,horizontal,1,0.847054953575134,red,3,NaN,734.001143498857,353.688914296288,NaN,NaN,865.998856501143,846.311085703712,1046.31108570371,534.001143498857,734.001143498857,353.688914296288,553.688914296288,665.998856501143,0,0,0,0,0,0,4,0,NaN,NaN,horizontal,horizontal,horizontal,horizontal,none,none
1c,14,100151,2,26,90,20,F,NA,variable,homogeneous,5,absent,0.803169012069702,1,vertical,vertical,1,0.823525910377502,red,4,NaN,688.215357568785,370.807518193712,NaN,NaN,755.719714694933,851.125977018113,1025.15163617903,719.715248510402,983.431649086356,422.862115532956,688.215357568785,370.807518193712,547.481642470899,635.489140744817,0,0,0,0,0,4,0,NaN,horizontal,horizontal,vertical,vertical,horizontal,none
1c,14,100151,2,27,91,20,F,NA,variable,homogeneous,3,absent,0.749917984008789,1,vertical,vertical,1,0.729409737586975,red,2,NaN,911.784642431215,370.807518193712,NaN,NaN,942.594190385041,811.404581001536,911.784642431215,370.807518193712,545.621167183745,617.787900804752,0,0,0,0,0,0,0,4,0,NaN,NaN,NaN,horizontal,vertical,horizontal,none,none,none
1c,14,100151,2,28,92,20,F,NA,variable,homogeneous,5,absent,0.597276926040649,1,vertical,vertical,1,0.6,red,3,NaN,995.341332995339,436.089159529932,NaN,NaN,738.309916622085,847.425410200379,1016.25226451989,735.129412379467,995.341332995339,436.089159529932,704.475318678942,363.568117085469,545.621167183745,617.787900804752,0,0,0,0,4,0,0,NaN,horizontal,horizontal,vertical,vertical,vertical,none
1c,14,100151,2,29,93,20,F,NA,variable,homogeneous,5,absent,0.554754972457886,1,vertical,vertical,1,0.882348518371582,green,5,NaN,583.747735480111,735.129412379467,NaN,NaN,861.690083377915,847.425410200379,1054.37883281626,617.787900804752,895.524681321058,363.568117085469,604.658667004661,436.089159529932,583.747735480111,735.129412379467,0,0,0,0,0,0,4,NaN,horizontal,horizontal,vertical,vertical,vertical,none
1c,14,100151,2,30,94,20,F,NA,variable,homogeneous,5,present,0.630560874938965,1,horizontal,horizontal,1,1.02352277755737,green,3,5,826.654758133252,346.39691668109,629.371695378491,789.501930496736,927.5,820.836477965032,1049.42763818712,546.982518841471,826.654758133252,346.39691668109,567.045908301137,496.282156015671,629.371695378491,789.501930496736,0,0,0,0,4,0,0,NaN,horizontal,horizontal,horizontal,horizontal,horizontal,none
1c,14,100151,2,31,95,20,F,NA,variable,homogeneous,5,present,0.641041994094849,1,vertical,vertical,1,1.08234538555145,red,2,3,1053.60308331891,573.345241866748,853.017481158529,350.57236181288,903.717843984329,832.954091698863,1053.60308331891,573.345241866748,853.017481158529,350.57236181288,579.163522034968,472.5,610.498069503264,770.628304621509,0,0,0,4,0,0,0,NaN,horizontal,vertical,vertical,horizontal,vertical,none
1c,14,100151,2,32,96,20,F,NA,variable,homogeneous,6,absent,0.695230960845947,1,vertical,vertical,1,0.65882260799408,red,5,NaN,545.03883773512,595.549636358493,NaN,NaN,923.626453162816,823.028025320546,1054.96116226488,604.450363641507,931.334709102064,381.422338320961,676.373546837184,376.971974679454,545.03883773512,595.549636358493,668.665290897936,818.577661679039,0,0,0,0,4,0,horizontal,horizontal,horizontal,vertical,vertical,vertical
1c,14,100151,2,33,97,20,F,NA,variable,homogeneous,5,present,0.916317939758301,1,horizontal,horizontal,1,0.752938780784607,red,1,4,738.309916622085,847.425410200379,704.475318678942,363.568117085469,738.309916622085,847.425410200379,1016.25226451989,735.129412379467,995.341332995339,436.089159529932,704.475318678942,363.568117085469,545.621167183745,617.787900804752,0,0,4,0,0,0,0,NaN,horizontal,horizontal,vertical,horizontal,vertical,none
1c,14,100151,2,34,98,20,F,NA,variable,homogeneous,4,present,0.653075933456421,1,horizontal,horizontal,1,0.91764208316803,red,4,1,545.155339110131,608.899371659138,808.899371659138,854.844660889869,808.899371659138,854.844660889869,1054.84466088987,591.100628340862,791.100628340862,345.155339110131,545.155339110131,608.899371659138,0,0,0,0,0,0,0,4,NaN,NaN,vertical,vertical,horizontal,horizontal,none,none
1c,14,100151,2,35,99,20,F,NA,variable,homogeneous,6,present,0.821269989013672,1,vertical,vertical,1,0.741174259185791,green,1,3,725.445215295702,843.857712770574,1048.46436652023,542.637481142314,725.445215295702,843.857712770574,973.909581815937,786.495193912888,1048.46436652023,542.637481142314,874.554784704298,356.142287229426,626.090418184063,413.504806087112,551.535633479765,657.362518857686,4,0,0,0,0,0,vertical,vertical,horizontal,horizontal,horizontal,horizontal
1c,14,100151,2,36,100,20,F,NA,variable,homogeneous,3,absent,0.606226921081543,1,vertical,vertical,1,0.623529043197632,green,2,NaN,1000.94274216971,443.006323791957,NaN,NaN,835.489140744817,852.518357529101,1000.94274216971,443.006323791957,563.568117085469,504.475318678942,0,0,0,0,0,0,0,4,0,NaN,NaN,NaN,vertical,vertical,vertical,none,none,none
1c,14,100151,2,37,101,20,F,NA,variable,homogeneous,5,absent,0.660030126571655,1,horizontal,horizontal,1,0.870583996772766,green,5,NaN,545.349468637584,586.654331158049,NaN,NaN,708.616172865948,838.063008756786,998.172220171528,760.476699717708,1013.86099482608,461.117046071168,734.001143498857,353.688914296288,545.349468637584,586.654331158049,0,0,0,0,0,0,4,NaN,horizontal,horizontal,vertical,horizontal,horizontal,none
1c,14,100151,2,38,102,20,F,NA,variable,homogeneous,4,absent,0.677915096282959,1,vertical,vertical,1,0.847054953575134,red,4,NaN,545.970351986605,622.224714400653,NaN,NaN,822.224714400653,854.029648013395,1054.0296480134,577.775285599347,777.775285599347,345.970351986605,545.970351986605,622.224714400653,0,0,0,0,0,0,0,4,NaN,NaN,horizontal,horizontal,horizontal,vertical,none,none
1c,14,100151,2,39,103,20,F,NA,variable,homogeneous,4,absent,0.52820086479187,1,horizontal,horizontal,1,0.811761388778687,green,4,NaN,581.422338320961,468.665290897936,NaN,NaN,668.665290897936,818.577661679039,1018.57766167904,731.334709102064,931.334709102064,381.422338320961,581.422338320961,468.665290897936,0,0,0,0,0,0,0,4,NaN,NaN,vertical,horizontal,horizontal,horizontal,none,none
1c,14,100151,2,40,104,20,F,NA,variable,homogeneous,3,present,0.695272922515869,0,horizontal,vertical,1,0.811761388778687,red,1,3,729.712474266665,845.121732464271,622.862115532956,416.568350913644,729.712474266665,845.121732464271,1047.42541020038,538.309916622085,622.862115532956,416.568350913644,0,0,0,0,0,0,4,0,0,NaN,NaN,NaN,horizontal,horizontal,vertical,none,none,none
1c,14,100151,2,41,105,20,F,NA,variable,homogeneous,5,absent,0.738608121871948,1,horizontal,horizontal,1,1.05881634235382,red,1,NaN,878.799333565612,842.519411655264,NaN,NaN,878.799333565612,842.519411655264,1055,600,878.799333565612,357.480588344736,593.700666434388,450.114760665419,593.700666434388,749.885239334581,0,0,4,0,0,0,0,NaN,horizontal,vertical,vertical,horizontal,horizontal,none
1c,14,100151,2,42,106,20,F,NA,variable,homogeneous,4,present,0.675965785980225,1,vertical,vertical,1,0.729409737586975,green,1,2,835.489140744817,852.518357529101,1052.5183575291,564.510859255183,835.489140744817,852.518357529101,1052.5183575291,564.510859255183,764.510859255183,347.4816424709,547.481642470899,635.489140744817,0,0,0,0,4,0,0,0,NaN,NaN,vertical,horizontal,horizontal,vertical,none,none
1c,14,100151,2,43,107,20,F,NA,variable,homogeneous,4,absent,0.71465015411377,1,vertical,vertical,1,0.847054953575134,green,1,NaN,668.665290897936,818.577661679039,NaN,NaN,668.665290897936,818.577661679039,1018.57766167904,731.334709102064,931.334709102064,381.422338320961,581.422338320961,468.665290897936,0,0,0,0,4,0,0,0,NaN,NaN,vertical,horizontal,horizontal,horizontal,none,none
1c,14,100151,2,44,108,20,F,NA,variable,homogeneous,3,present,0.797359943389893,1,vertical,vertical,1,1.02352277755737,red,1,2,742.637481142314,848.464366520235,1043.85771277057,525.445215295702,742.637481142314,848.464366520235,1043.85771277057,525.445215295702,613.504806087112,426.090418184063,0,0,0,0,0,0,4,0,0,NaN,NaN,NaN,vertical,vertical,horizontal,none,none,none
1c,14,100151,2,45,109,20,F,NA,variable,homogeneous,6,absent,0.540755033493042,1,vertical,vertical,1,0.976464691162109,green,4,NaN,915.767577433584,372.793336331966,NaN,NaN,684.232422566416,827.206663668034,938.882953928832,813.860994826083,1054.65053136242,586.654331158049,915.767577433584,372.793336331966,661.117046071168,386.139005173917,545.349468637584,613.345668841951,0,0,0,4,0,0,vertical,vertical,horizontal,vertical,horizontal,vertical
1c,14,100151,2,46,110,20,F,NA,variable,homogeneous,6,present,0.620639801025391,1,horizontal,horizontal,1,0.823525910377502,green,2,5,1034.72873763037,699.636437764765,565.271262369628,500.363562235235,831.076682568313,853.099268668537,1034.72873763037,699.636437764765,1003.65205506206,446.537169096228,768.923317431687,346.900731331463,565.271262369628,500.363562235235,596.34794493794,753.462830903772,0,4,0,0,0,0,vertical,horizontal,vertical,horizontal,vertical,vertical
1c,14,100151,2,47,111,20,F,NA,variable,homogeneous,4,present,0.665342092514038,1,vertical,vertical,1,0.611764521598816,red,4,1,552.574589799621,661.690083377915,861.690083377915,847.425410200379,861.690083377915,847.425410200379,1047.42541020038,538.309916622085,738.309916622085,352.574589799621,552.574589799621,661.690083377915,0,0,0,0,0,0,0,4,NaN,NaN,horizontal,vertical,vertical,vertical,none,none
1c,14,100151,2,48,112,20,F,NA,variable,homogeneous,3,absent,0.601449012756348,1,horizontal,horizontal,1,0.929406604766846,green,1,NaN,883.019879386575,841.107236777826,NaN,NaN,883.019879386575,841.107236777826,967.295052392579,407.549057043193,549.685068220846,551.343706178981,0,0,0,0,0,0,4,0,0,NaN,NaN,NaN,horizontal,horizontal,vertical,none,none,none
1c,14,100151,2,49,113,20,F,NA,variable,homogeneous,6,absent,0.536561965942383,1,horizontal,horizontal,1,0.941171126365662,red,2,NaN,967.295052392579,792.450942956807,NaN,NaN,716.980120613425,841.107236777826,967.295052392579,792.450942956807,1050.31493177915,551.343706178981,883.019879386575,358.892763222174,632.704947607421,407.549057043193,549.685068220846,648.656293821019,0,4,0,0,0,0,horizontal,horizontal,horizontal,vertical,vertical,horizontal
1c,14,100151,2,50,114,20,F,NA,variable,homogeneous,5,absent,0.521562099456787,1,horizontal,horizontal,1,0.705880694389343,green,3,NaN,1016.25226451989,464.870587620533,NaN,NaN,704.475318678942,836.431882914531,995.341332995339,763.910840470068,1016.25226451989,464.870587620533,738.309916622085,352.574589799621,545.621167183745,582.212099195248,0,0,0,0,4,0,0,NaN,horizontal,horizontal,horizontal,horizontal,vertical,none
1c,14,100151,2,51,115,20,F,NA,variable,homogeneous,3,absent,0.588732004165649,1,horizontal,horizontal,1,1.03528729915619,red,1,NaN,995.341332995339,763.910840470068,NaN,NaN,995.341332995339,763.910840470068,844.280285305067,348.874022981887,560.378381699593,687.215136548046,0,0,0,0,0,0,4,0,0,NaN,NaN,NaN,horizontal,horizontal,vertical,none,none,none
1c,14,100151,2,52,116,20,F,NA,variable,homogeneous,5,present,0.654169082641602,1,horizontal,horizontal,1,0.870583996772766,red,3,2,1006.29933356561,450.114760665419,1006.29933356561,749.885239334581,721.200666434388,842.519411655264,1006.29933356561,749.885239334581,1006.29933356561,450.114760665419,721.200666434388,357.480588344736,545,600,0,0,0,0,4,0,0,NaN,horizontal,vertical,horizontal,horizontal,horizontal,none
1c,14,100151,2,53,117,20,F,NA,variable,homogeneous,3,present,0.560990810394287,1,horizontal,horizontal,1,0.682351651191711,red,3,2,556.142287229426,525.445215295702,986.495193912888,426.090418184063,857.362518857686,848.464366520235,986.495193912888,426.090418184063,556.142287229426,525.445215295702,0,0,0,0,0,0,0,0,4,NaN,NaN,NaN,horizontal,vertical,horizontal,none,none,none
1c,14,100151,2,54,118,20,F,NA,variable,homogeneous,3,present,0.566243886947632,1,vertical,vertical,1,1.09410990715027,green,2,1,865.998856501143,353.688914296288,980.31222920257,780.31222920257,980.31222920257,780.31222920257,865.998856501143,353.688914296288,553.688914296288,665.998856501143,0,0,0,0,0,0,0,4,0,NaN,NaN,NaN,horizontal,vertical,horizontal,none,none,none
1c,14,100151,2,55,119,20,F,NA,variable,homogeneous,3,present,0.722461938858032,1,vertical,vertical,1,0.835290431976318,red,1,2,878.799333565612,842.519411655264,970.628304621509,410.498069503264,878.799333565612,842.519411655264,970.628304621509,410.498069503264,550.57236181288,546.982518841471,0,0,0,0,0,0,4,0,0,NaN,NaN,NaN,vertical,horizontal,horizontal,none,none,none
1c,14,100151,2,56,120,20,F,NA,variable,homogeneous,3,present,0.781792879104614,1,horizontal,horizontal,1,1.03528729915619,green,1,2,629.371695378491,789.501930496736,1049.42763818712,653.017481158529,629.371695378491,789.501930496736,1049.42763818712,653.017481158529,721.200666434388,357.480588344736,0,0,0,0,0,0,4,0,0,NaN,NaN,NaN,horizontal,vertical,horizontal,none,none,none
1c,14,100151,2,57,121,20,F,NA,variable,homogeneous,4,present,0.692620992660522,1,horizontal,horizontal,1,0.741174259185791,green,1,3,721.200666434388,842.519411655264,878.799333565612,357.480588344736,721.200666434388,842.519411655264,1042.51941165526,678.799333565612,878.799333565612,357.480588344736,557.480588344736,521.200666434388,0,0,0,0,4,0,0,0,NaN,NaN,horizontal,horizontal,vertical,horizontal,none,none
1c,14,100151,2,58,122,20,F,NA,variable,homogeneous,4,present,0.813103914260864,1,horizontal,horizontal,1,0.91764208316803,green,2,4,1039.62161830041,512.784863451954,560.378381699593,687.215136548046,887.215136548046,839.621618300407,1039.62161830041,512.784863451954,712.784863451954,360.378381699593,560.378381699593,687.215136548046,0,0,0,0,0,4,0,0,NaN,NaN,horizontal,horizontal,vertical,vertical,none,none
1c,14,100151,2,59,123,20,F,NA,variable,homogeneous,5,present,0.584594964981079,1,horizontal,horizontal,1,0.764703302383423,green,3,2,1042.51941165526,521.200666434388,949.885239334581,806.299333565612,650.114760665419,806.299333565612,949.885239334581,806.299333565612,1042.51941165526,521.200666434388,800,345,557.480588344736,521.200666434388,0,0,0,0,4,0,0,NaN,horizontal,vertical,horizontal,vertical,horizontal,none
1c,14,100151,2,60,124,20,F,NA,variable,homogeneous,6,absent,0.542371988296509,1,horizontal,horizontal,1,0.894113039970398,red,3,NaN,973.909581815937,413.504806087112,NaN,NaN,874.554784704298,843.857712770574,1048.46436652023,657.362518857686,973.909581815937,413.504806087112,725.445215295702,356.142287229426,551.535633479765,542.637481142314,626.090418184063,786.495193912888,0,0,4,0,0,0,vertical,horizontal,horizontal,horizontal,horizontal,horizontal
1c,14,100151,2,61,125,20,F,NA,variable,homogeneous,6,absent,0.596333026885986,1,horizontal,horizontal,1,0.752938780784607,green,1,NaN,746.982518841471,849.42763818712,NaN,NaN,746.982518841471,849.42763818712,989.501930496736,770.628304621509,1042.51941165526,521.200666434388,853.017481158529,350.57236181288,610.498069503264,429.371695378491,557.480588344736,678.799333565612,4,0,0,0,0,0,horizontal,vertical,vertical,horizontal,horizontal,horizontal
1c,14,100151,2,62,126,20,F,NA,variable,homogeneous,6,present,0.6529541015625,1,horizontal,horizontal,1,1.02352277755737,red,1,3,676.373546837184,823.028025320546,1054.96116226488,595.549636358493,676.373546837184,823.028025320546,931.334709102064,818.577661679039,1054.96116226488,595.549636358493,923.626453162816,376.971974679454,668.665290897936,381.422338320961,545.03883773512,604.450363641507,4,0,0,0,0,0,horizontal,horizontal,vertical,horizontal,vertical,vertical
1c,14,100151,2,63,127,20,F,NA,variable,homogeneous,3,present,0.524142026901245,1,horizontal,horizontal,1,0.894113039970398,green,1,3,729.712474266665,845.121732464271,622.862115532956,416.568350913644,729.712474266665,845.121732464271,1047.42541020038,538.309916622085,622.862115532956,416.568350913644,0,0,0,0,0,0,4,0,0,NaN,NaN,NaN,horizontal,vertical,vertical,none,none,none
1c,14,100151,2,64,128,20,F,NA,variable,homogeneous,3,absent,0.464228868484497,1,vertical,vertical,1,1.08234538555145,red,2,NaN,861.690083377915,352.574589799621,NaN,NaN,983.431649086356,777.137884467044,861.690083377915,352.574589799621,554.878267535729,670.287525733335,0,0,0,0,0,0,0,4,0,NaN,NaN,NaN,vertical,vertical,horizontal,none,none,none
1c,14,100151,3,1,129,20,F,NA,variable,homogeneous,5,absent,0.641040802001953,1,vertical,vertical,1,0.647058086395264,red,1,NaN,853.017481158529,849.42763818712,NaN,NaN,853.017481158529,849.42763818712,1053.60308331891,626.654758133252,903.717843984329,367.045908301137,610.498069503264,429.371695378491,579.163522034968,727.5,0,0,4,0,0,0,0,NaN,vertical,vertical,vertical,vertical,vertical,none
1c,14,100151,3,2,130,20,F,NA,variable,homogeneous,6,absent,0.658344984054565,1,horizontal,horizontal,1,0.823525910377502,green,6,NaN,616.568350913644,777.137884467044,NaN,NaN,861.690083377915,847.425410200379,1045.12173246427,670.287525733335,983.431649086356,422.862115532956,738.309916622085,352.574589799621,554.878267535729,529.712474266665,616.568350913644,777.137884467044,0,0,0,0,0,4,vertical,horizontal,vertical,horizontal,horizontal,horizontal
1c,14,100151,3,3,131,20,F,NA,variable,homogeneous,4,absent,0.522757053375244,1,vertical,vertical,1,0.952935647964477,red,3,NaN,853.017481158529,350.57236181288,NaN,NaN,746.982518841471,849.42763818712,1049.42763818712,653.017481158529,853.017481158529,350.57236181288,550.57236181288,546.982518841471,0,0,0,0,0,0,4,0,NaN,NaN,horizontal,vertical,vertical,horizontal,none,none
1c,14,100151,3,4,132,20,F,NA,variable,homogeneous,5,present,0.558169841766357,1,vertical,vertical,1,1.03528729915619,green,2,1,970.628304621509,789.501930496736,672.5,820.836477965032,672.5,820.836477965032,970.628304621509,789.501930496736,1032.95409169886,496.282156015671,773.345241866748,346.39691668109,550.57236181288,546.982518841471,0,0,0,4,0,0,0,NaN,vertical,vertical,vertical,vertical,vertical,none
1c,14,100151,3,5,133,20,F,NA,variable,homogeneous,6,present,0.515305042266846,0,horizontal,vertical,1,0.694116172790527,green,2,6,986.495193912888,773.909581815937,556.142287229426,674.554784704298,742.637481142314,848.464366520235,986.495193912888,773.909581815937,1043.85771277057,525.445215295702,857.362518857686,351.535633479765,613.504806087112,426.090418184063,556.142287229426,674.554784704298,0,4,0,0,0,0,vertical,horizontal,vertical,horizontal,horizontal,vertical
1c,14,100151,3,6,134,20,F,NA,variable,homogeneous,6,present,0.71965217590332,1,horizontal,horizontal,1,0.894113039970398,green,3,6,953.462830903772,396.34794493794,646.537169096228,803.65205506206,899.636437764765,834.728737630372,1053.09926866854,631.076682568313,953.462830903772,396.34794493794,700.363562235235,365.271262369628,546.900731331463,568.923317431687,646.537169096228,803.65205506206,0,0,4,0,0,0,horizontal,horizontal,horizontal,horizontal,horizontal,horizontal
1c,14,100151,3,7,135,20,F,NA,variable,homogeneous,5,absent,0.655610084533691,1,horizontal,horizontal,1,0.870583996772766,green,1,NaN,891.383827134052,838.063008756786,NaN,NaN,891.383827134052,838.063008756786,1054.65053136242,586.654331158049,865.998856501143,353.688914296288,586.139005173917,461.117046071168,601.827779828472,760.476699717708,0,0,4,0,0,0,0,NaN,horizontal,vertical,horizontal,horizontal,horizontal,none
1c,14,100151,3,8,136,20,F,NA,variable,homogeneous,4,present,0.537203073501587,1,horizontal,horizontal,1,0.611764521598816,green,4,3,545.349468637584,586.654331158049,813.345668841951,345.349468637584,786.654331158049,854.650531362416,1054.65053136242,613.345668841951,813.345668841951,345.349468637584,545.349468637584,586.654331158049,0,0,0,0,0,0,0,4,NaN,NaN,vertical,vertical,horizontal,horizontal,none,none
1c,14,100151,3,9,137,20,F,NA,variable,homogeneous,6,present,0.829323053359985,1,horizontal,horizontal,1,1.07058086395264,red,4,1,817.787900804752,345.621167183745,782.212099195248,854.378832816255,782.212099195248,854.378832816255,1011.40458100154,742.594190385041,1029.19248180629,488.215357568785,817.787900804752,345.621167183745,588.595418998464,457.40580961496,570.807518193712,711.784642431215,0,0,0,4,0,0,vertical,vertical,vertical,horizontal,vertical,vertical
1c,14,100151,3,10,138,20,F,NA,variable,homogeneous,5,present,1.17958617210388,1,vertical,vertical,1,1.07058086395264,red,2,1,1054.84466088987,608.899371659138,870.287525733335,845.121732464271,870.287525733335,845.121732464271,1054.84466088987,608.899371659138,887.215136548046,360.378381699593,599.057257830286,443.006323791957,588.595418998464,742.594190385041,0,0,0,4,0,0,0,NaN,horizontal,vertical,vertical,vertical,vertical,none
1c,14,100151,3,11,139,20,F,NA,variable,homogeneous,6,absent,0.50652003288269,1,vertical,vertical,1,0.764703302383423,green,2,NaN,1053.09926866854,631.076682568313,NaN,NaN,899.636437764765,834.728737630372,1053.09926866854,631.076682568313,953.462830903772,396.34794493794,700.363562235235,365.271262369628,546.900731331463,568.923317431687,646.537169096228,803.65205506206,0,4,0,0,0,0,horizontal,vertical,horizontal,vertical,horizontal,horizontal
1c,14,100151,3,12,140,20,F,NA,variable,homogeneous,3,present,1.55278301239014,1,vertical,vertical,1,1.01175825595856,red,2,3,1039.62161830041,512.784863451954,604.658667004661,436.089159529932,755.719714694933,851.125977018113,1039.62161830041,512.784863451954,604.658667004661,436.089159529932,0,0,0,0,0,0,0,4,0,NaN,NaN,NaN,horizontal,vertical,horizontal,none,none,none
1c,14,100151,3,13,141,20,F,NA,variable,homogeneous,3,absent,0.571156978607178,1,vertical,vertical,1,0.729409737586975,green,1,NaN,664.870587620533,816.252264519889,NaN,NaN,664.870587620533,816.252264519889,1054.84466088987,608.899371659138,680.284751489598,374.848363820974,0,0,0,0,0,0,4,0,0,NaN,NaN,NaN,vertical,horizontal,horizontal,none,none,none
1c,14,100151,3,14,142,20,F,NA,variable,homogeneous,3,present,0.473193883895874,1,vertical,vertical,1,0.929406604766846,red,2,3,895.524681321058,363.568117085469,547.481642470899,635.489140744817,956.993676208043,800.942742169714,895.524681321058,363.568117085469,547.481642470899,635.489140744817,0,0,0,0,0,0,0,4,0,NaN,NaN,NaN,horizontal,vertical,horizontal,none,none,none
1c,14,100151,3,15,143,20,F,NA,variable,homogeneous,6,absent,0.470109939575195,0,horizontal,vertical,1,0.752938780784607,green,6,NaN,548.13947314824,639.890788585259,NaN,NaN,708.616172865948,838.063008756786,960.476699717708,798.172220171528,1051.86052685176,560.109211414741,891.383827134052,361.936991243214,639.523300282292,401.827779828472,548.13947314824,639.890788585259,0,0,0,0,0,4,horizontal,vertical,vertical,vertical,vertical,horizontal
1c,14,100151,3,16,144,20,F,NA,variable,homogeneous,6,absent,0.761793851852417,1,horizontal,horizontal,1,0.905877561569214,red,1,NaN,804.450363641507,854.96116226488,NaN,NaN,804.450363641507,854.96116226488,1023.02802532055,723.626453162816,1018.57766167904,468.665290897936,795.549636358493,345.03883773512,576.971974679454,476.373546837184,581.422338320961,731.334709102064,4,0,0,0,0,0,horizontal,vertical,horizontal,horizontal,vertical,horizontal
1c,14,100151,3,17,145,20,F,NA,variable,homogeneous,5,present,0.529741048812866,1,horizontal,horizontal,1,0.635293564796448,red,1,3,808.899371659138,854.844660889869,942.594190385041,388.595418998464,808.899371659138,854.844660889869,1045.12173246427,670.287525733335,942.594190385041,388.595418998464,643.006323791957,399.057257830286,560.378381699593,687.215136548046,0,0,4,0,0,0,0,NaN,horizontal,horizontal,horizontal,vertical,horizontal,none
1c,14,100151,3,18,146,20,F,NA,variable,homogeneous,3,absent,0.645112991333008,1,vertical,vertical,1,0.623529043197632,red,2,NaN,1054.37883281626,617.787900804752,NaN,NaN,657.405809614959,811.404581001536,1054.37883281626,617.787900804752,688.215357568785,370.807518193712,0,0,0,0,0,0,0,4,0,NaN,NaN,NaN,horizontal,vertical,vertical,none,none,none
1c,14,100151,3,19,147,20,F,NA,variable,homogeneous,5,absent,0.572565078735352,1,vertical,vertical,1,0.929406604766846,green,3,NaN,831.076682568313,346.900731331463,NaN,NaN,923.626453162816,823.028025320546,1050.31493177915,551.343706178981,831.076682568313,346.900731331463,568.891514305654,492.232343256122,626.090418184063,786.495193912888,0,0,0,0,4,0,0,NaN,vertical,horizontal,vertical,horizontal,vertical,none
1c,14,100151,3,20,148,20,F,NA,variable,homogeneous,4,present,0.732574939727783,1,horizontal,horizontal,1,0.623529043197632,red,2,4,980.31222920257,780.31222920257,619.68777079743,419.68777079743,619.68777079743,780.31222920257,980.31222920257,780.31222920257,980.31222920257,419.68777079743,619.68777079743,419.68777079743,0,0,0,0,0,4,0,0,NaN,NaN,horizontal,horizontal,vertical,horizontal,none,none
1c,14,100151,3,21,149,20,F,NA,variable,homogeneous,4,present,1.34617018699646,1,vertical,vertical,1,0.741174259185791,red,2,1,1038.06300875679,691.383827134052,708.616172865948,838.063008756786,708.616172865948,838.063008756786,1038.06300875679,691.383827134052,891.383827134052,361.936991243214,561.936991243214,508.616172865948,0,0,0,0,0,4,0,0,NaN,NaN,vertical,vertical,horizontal,horizontal,none,none
1c,14,100151,3,22,150,20,F,NA,variable,homogeneous,5,absent,0.657935857772827,1,horizontal,horizontal,1,0.823525910377502,green,4,NaN,561.936991243214,508.616172865948,NaN,NaN,938.882953928832,813.860994826083,1046.31108570371,534.001143498857,813.345668841951,345.349468637584,561.936991243214,508.616172865948,639.523300282292,798.172220171528,0,0,0,0,0,4,0,NaN,vertical,vertical,horizontal,horizontal,vertical,none
1c,14,100151,3,23,151,20,F,NA,variable,homogeneous,3,present,0.634345054626465,1,horizontal,horizontal,1,0.952935647964477,green,3,1,650.114760665419,393.700666434388,696.282156015671,832.954091698863,696.282156015671,832.954091698863,1053.60308331891,573.345241866748,650.114760665419,393.700666434388,0,0,0,0,0,0,0,0,4,NaN,NaN,NaN,horizontal,vertical,horizontal,none,none,none
1c,14,100151,3,24,152,20,F,NA,variable,homogeneous,6,absent,0.585375070571899,1,vertical,vertical,1,0.905877561569214,red,2,NaN,942.594190385041,811.404581001536,NaN,NaN,688.215357568785,829.192481806288,942.594190385041,811.404581001536,1054.37883281626,582.212099195248,911.784642431215,370.807518193712,657.405809614959,388.595418998464,545.621167183745,617.787900804752,0,4,0,0,0,0,vertical,vertical,vertical,horizontal,vertical,vertical
1c,14,100151,3,25,153,20,F,NA,variable,homogeneous,3,present,0.651612997055054,1,horizontal,horizontal,1,0.705880694389343,red,3,1,547.481642470899,564.510859255183,895.524681321058,836.431882914531,895.524681321058,836.431882914531,956.993676208043,399.057257830286,547.481642470899,564.510859255183,0,0,0,0,0,0,0,0,4,NaN,NaN,NaN,horizontal,horizontal,horizontal,none,none,none
1c,14,100151,3,26,154,20,F,NA,variable,homogeneous,4,absent,0.593564987182617,1,horizontal,horizontal,1,0.647058086395264,green,1,NaN,899.636437764765,834.728737630372,NaN,NaN,899.636437764765,834.728737630372,1034.72873763037,500.363562235235,700.363562235235,365.271262369628,565.271262369628,699.636437764765,0,0,0,0,4,0,0,0,NaN,NaN,horizontal,vertical,vertical,vertical,none,none
1c,14,100151,3,27,155,20,F,NA,variable,homogeneous,3,absent,0.636384963989258,1,vertical,vertical,1,0.941171126365662,green,1,NaN,903.717843984329,832.954091698863,NaN,NaN,903.717843984329,832.954091698863,949.885239334581,393.700666434388,546.39691668109,573.345241866748,0,0,0,0,0,0,4,0,0,NaN,NaN,NaN,vertical,horizontal,horizontal,none,none,none
1c,14,100151,3,28,156,20,F,NA,variable,homogeneous,4,absent,0.687280893325806,1,horizontal,horizontal,1,1.09410990715027,red,2,NaN,1045.12173246427,670.287525733335,NaN,NaN,729.712474266665,845.121732464271,1045.12173246427,670.287525733335,870.287525733335,354.878267535729,554.878267535729,529.712474266665,0,0,0,0,0,4,0,0,NaN,NaN,vertical,horizontal,horizontal,vertical,none,none
1c,14,100151,3,29,157,20,F,NA,variable,homogeneous,4,absent,0.665034055709839,1,vertical,vertical,1,0.799996867179871,green,3,NaN,800,345,NaN,NaN,800,855,1055,600,800,345,545,600,0,0,0,0,0,0,4,0,NaN,NaN,vertical,horizontal,vertical,vertical,none,none
1c,14,100151,3,30,158,20,F,NA,variable,homogeneous,5,absent,0.443180084228516,1,vertical,vertical,1,1.02352277755737,red,1,NaN,903.717843984329,832.954091698863,NaN,NaN,903.717843984329,832.954091698863,1053.60308331891,573.345241866748,853.017481158529,350.57236181288,579.163522034968,472.5,610.498069503264,770.628304621509,0,0,4,0,0,0,0,NaN,vertical,vertical,vertical,vertical,horizontal,none
1c,14,100151,3,31,159,20,F,NA,variable,homogeneous,3,present,0.476495027542114,1,vertical,vertical,1,1.02352277755737,green,2,3,963.910840470068,404.658667004661,548.874022981887,555.719714694933,887.215136548046,839.621618300407,963.910840470068,404.658667004661,548.874022981887,555.719714694933,0,0,0,0,0,0,0,4,0,NaN,NaN,NaN,vertical,vertical,vertical,none,none,none
1c,14,100151,3,32,160,20,F,NA,variable,homogeneous,6,absent,0.607784986495972,1,vertical,vertical,1,1.08234538555145,red,5,NaN,591.116228706307,453.738008730483,NaN,NaN,777.775285599347,854.029648013395,1008.88377129369,746.261991269517,1031.10848569435,492.232343256122,822.224714400653,345.970351986605,591.116228706307,453.738008730483,568.891514305654,707.767656743878,0,0,0,0,4,0,vertical,horizontal,horizontal,vertical,vertical,vertical
1c,14,100151,3,33,161,20,F,NA,variable,homogeneous,5,present,0.633168935775757,1,vertical,vertical,1,1.05881634235382,red,5,3,547.481642470899,564.510859255183,1025.15163617903,480.284751489598,688.215357568785,829.192481806288,983.431649086356,777.137884467044,1025.15163617903,480.284751489598,755.719714694933,348.874022981887,547.481642470899,564.510859255183,0,0,0,0,0,0,4,NaN,vertical,vertical,horizontal,horizontal,vertical,none
1c,14,100151,3,34,162,20,F,NA,variable,homogeneous,5,present,0.651129961013794,1,horizontal,horizontal,1,0.65882260799408,red,3,5,963.910840470068,404.658667004661,552.574589799621,661.690083377915,782.212099195248,854.378832816255,1036.43188291453,695.524681321058,963.910840470068,404.658667004661,664.870587620533,383.747735480111,552.574589799621,661.690083377915,0,0,0,0,4,0,0,NaN,vertical,vertical,horizontal,horizontal,vertical,none
1c,14,100151,3,35,163,20,F,NA,variable,homogeneous,3,absent,0.514686107635498,1,horizontal,horizontal,1,0.91764208316803,red,2,NaN,1054.84466088987,591.100628340862,NaN,NaN,680.284751489598,825.151636179026,1054.84466088987,591.100628340862,664.870587620533,383.747735480111,0,0,0,0,0,0,0,4,0,NaN,NaN,NaN,vertical,horizontal,horizontal,none,none,none
1c,14,100151,3,36,164,20,F,NA,variable,homogeneous,3,absent,0.407489061355591,1,horizontal,horizontal,1,0.91764208316803,red,3,NaN,545,600,NaN,NaN,927.5,820.836477965032,927.5,379.163522034968,545,600,0,0,0,0,0,0,0,0,4,NaN,NaN,NaN,horizontal,horizontal,horizontal,none,none,none
1c,14,100151,3,37,165,20,F,NA,variable,homogeneous,4,present,0.704507112503052,1,vertical,vertical,1,0.635293564796448,green,1,4,891.383827134052,838.063008756786,561.936991243214,691.383827134052,891.383827134052,838.063008756786,1038.06300875679,508.616172865948,708.616172865948,361.936991243214,561.936991243214,691.383827134052,0,0,0,0,4,0,0,0,NaN,NaN,vertical,vertical,horizontal,horizontal,none,none
1c,14,100151,3,38,166,20,F,NA,variable,homogeneous,4,absent,0.841423988342285,1,vertical,vertical,1,0.729409737586975,red,1,NaN,619.68777079743,780.31222920257,NaN,NaN,619.68777079743,780.31222920257,980.31222920257,780.31222920257,980.31222920257,419.68777079743,619.68777079743,419.68777079743,0,0,0,0,4,0,0,0,NaN,NaN,vertical,vertical,vertical,vertical,none,none
1c,14,100151,3,39,167,20,F,NA,variable,homogeneous,6,absent,0.509145021438599,1,vertical,vertical,1,0.941171126365662,green,2,NaN,960.476699717708,798.172220171528,NaN,NaN,708.616172865948,838.063008756786,960.476699717708,798.172220171528,1051.86052685176,560.109211414741,891.383827134052,361.936991243214,639.523300282292,401.827779828472,548.13947314824,639.890788585259,0,4,0,0,0,0,horizontal,vertical,horizontal,vertical,horizontal,horizontal
1c,14,100151,3,40,168,20,F,NA,variable,homogeneous,3,absent,0.772742986679077,1,horizontal,horizontal,1,1.05881634235382,green,3,NaN,557.480588344736,678.799333565612,NaN,NaN,989.501930496736,770.628304621509,853.017481158529,350.57236181288,557.480588344736,678.799333565612,0,0,0,0,0,0,0,0,4,NaN,NaN,NaN,vertical,vertical,horizontal,none,none,none
1c,14,100151,3,41,169,20,F,NA,variable,homogeneous,3,present,0.778934955596924,1,horizontal,horizontal,1,0.929406604766846,red,2,3,808.899371659138,345.155339110131,574.848363820974,719.715248510402,1016.25226451989,735.129412379467,808.899371659138,345.155339110131,574.848363820974,719.715248510402,0,0,0,0,0,0,0,4,0,NaN,NaN,NaN,vertical,horizontal,vertical,none,none,none
1c,14,100151,3,42,170,20,F,NA,variable,homogeneous,6,present,0.562281847000122,1,vertical,vertical,1,1.01175825595856,red,3,1,983.431649086356,422.862115532956,861.690083377915,847.425410200379,861.690083377915,847.425410200379,1045.12173246427,670.287525733335,983.431649086356,422.862115532956,738.309916622085,352.574589799621,554.878267535729,529.712474266665,616.568350913644,777.137884467044,0,0,4,0,0,0,vertical,horizontal,vertical,horizontal,vertical,horizontal
1c,14,100151,3,43,171,20,F,NA,variable,homogeneous,4,present,0.723403215408325,1,horizontal,horizontal,1,0.85881947517395,green,4,3,545.970351986605,622.224714400653,777.775285599347,345.970351986605,822.224714400653,854.029648013395,1054.0296480134,577.775285599347,777.775285599347,345.970351986605,545.970351986605,622.224714400653,0,0,0,0,0,0,0,4,NaN,NaN,horizontal,horizontal,vertical,horizontal,none,none
1c,14,100151,3,44,172,20,F,NA,variable,homogeneous,4,present,0.592591762542725,1,horizontal,horizontal,1,0.729409737586975,red,3,4,839.890788585259,348.13947314824,548.13947314824,560.109211414741,760.109211414741,851.86052685176,1051.86052685176,639.890788585259,839.890788585259,348.13947314824,548.13947314824,560.109211414741,0,0,0,0,0,0,4,0,NaN,NaN,vertical,horizontal,horizontal,horizontal,none,none
1c,14,100151,3,45,173,20,F,NA,variable,homogeneous,4,present,0.858953952789307,1,vertical,vertical,1,0.717645215988159,red,4,2,570.807518193712,711.784642431215,1029.19248180629,488.215357568785,911.784642431215,829.192481806288,1029.19248180629,488.215357568785,688.215357568785,370.807518193712,570.807518193712,711.784642431215,0,0,0,0,0,0,0,4,NaN,NaN,vertical,vertical,vertical,vertical,none,none
1c,14,100151,3,46,174,20,F,NA,variable,homogeneous,6,absent,0.521008014678955,1,horizontal,horizontal,1,0.635293564796448,red,2,NaN,995.341332995339,763.910840470068,NaN,NaN,755.719714694933,851.125977018113,995.341332995339,763.910840470068,1039.62161830041,512.784863451954,844.280285305067,348.874022981887,604.658667004661,436.089159529932,560.378381699593,687.215136548046,0,4,0,0,0,0,horizontal,horizontal,horizontal,vertical,vertical,horizontal
1c,14,100151,3,47,175,20,F,NA,variable,homogeneous,5,absent,0.539344072341919,1,vertical,vertical,1,0.988229212760925,green,1,NaN,795.549636358493,854.96116226488,NaN,NaN,795.549636358493,854.96116226488,1041.10723677783,683.019879386575,953.462830903772,396.34794493794,653.738008730483,391.116228706307,556.142287229426,674.554784704298,0,0,4,0,0,0,0,NaN,vertical,horizontal,horizontal,horizontal,vertical,none
1c,14,100151,3,48,176,20,F,NA,variable,homogeneous,4,absent,0.47127103805542,1,horizontal,horizontal,1,1.04705182075501,green,3,NaN,676.373546837184,376.971974679454,NaN,NaN,923.626453162816,823.028025320546,1023.02802532055,476.373546837184,676.373546837184,376.971974679454,576.971974679454,723.626453162816,0,0,0,0,0,0,4,0,NaN,NaN,horizontal,horizontal,horizontal,horizontal,none,none
1c,14,100151,3,49,177,20,F,NA,variable,homogeneous,5,present,0.582855939865112,1,horizontal,horizontal,1,0.894113039970398,green,4,2,558.892763222174,516.980120613425,1043.85771277057,525.445215295702,946.261991269517,808.883771293693,1043.85771277057,525.445215295702,804.450363641507,345.03883773512,558.892763222174,516.980120613425,646.537169096228,803.65205506206,0,0,0,0,0,4,0,NaN,horizontal,horizontal,horizontal,horizontal,vertical,none
1c,14,100151,3,50,178,20,F,NA,variable,homogeneous,5,present,0.61000394821167,1,horizontal,horizontal,1,0.776467823982239,green,1,4,911.784642431215,829.192481806288,574.848363820974,480.284751489598,911.784642431215,829.192481806288,1052.5183575291,564.510859255183,844.280285305067,348.874022981887,574.848363820974,480.284751489598,616.568350913644,777.137884467044,0,0,4,0,0,0,0,NaN,horizontal,vertical,vertical,vertical,vertical,none
1c,14,100151,3,51,179,20,F,NA,variable,homogeneous,3,present,0.507611036300659,1,horizontal,horizontal,1,1.05881634235382,green,1,3,960.476699717708,798.172220171528,548.13947314824,639.890788585259,960.476699717708,798.172220171528,891.383827134052,361.936991243214,548.13947314824,639.890788585259,0,0,0,0,0,0,4,0,0,NaN,NaN,NaN,horizontal,horizontal,horizontal,none,none,none
1c,14,100151,3,52,180,20,F,NA,variable,homogeneous,4,absent,0.471421003341675,1,vertical,vertical,1,0.670587129592895,green,3,NaN,696.282156015671,367.045908301137,NaN,NaN,903.717843984329,832.954091698863,1032.95409169886,496.282156015671,696.282156015671,367.045908301137,567.045908301137,703.717843984329,0,0,0,0,0,0,4,0,NaN,NaN,vertical,vertical,vertical,horizontal,none,none
1c,14,100151,3,53,181,20,F,NA,variable,homogeneous,6,present,0.447450876235962,1,vertical,vertical,1,0.91764208316803,green,3,5,949.885239334581,393.700666434388,546.39691668109,573.345241866748,903.717843984329,832.954091698863,1053.60308331891,626.654758133252,949.885239334581,393.700666434388,696.282156015671,367.045908301137,546.39691668109,573.345241866748,650.114760665419,806.299333565612,0,0,4,0,0,0,horizontal,vertical,vertical,vertical,vertical,vertical
1c,14,100151,3,54,182,20,F,NA,variable,homogeneous,6,present,0.584717988967896,1,vertical,vertical,1,0.811761388778687,green,2,5,1027.20666366803,715.767577433584,572.793336331966,484.232422566416,813.345668841951,854.650531362416,1027.20666366803,715.767577433584,1013.86099482608,461.117046071168,786.654331158049,345.349468637584,572.793336331966,484.232422566416,586.139005173917,738.882953928832,0,4,0,0,0,0,horizontal,vertical,vertical,vertical,vertical,horizontal
1c,14,100151,3,55,183,20,F,NA,variable,homogeneous,6,present,0.850901126861572,1,vertical,vertical,1,0.905877561569214,red,3,1,1003.65205506206,446.537169096228,831.076682568313,853.099268668537,831.076682568313,853.099268668537,1034.72873763037,699.636437764765,1003.65205506206,446.537169096228,768.923317431687,346.900731331463,565.271262369628,500.363562235235,596.34794493794,753.462830903772,0,0,4,0,0,0,vertical,horizontal,vertical,horizontal,vertical,vertical
1c,14,100151,3,56,184,20,F,NA,variable,homogeneous,5,absent,0.491277933120728,1,horizontal,horizontal,1,0.764703302383423,red,4,NaN,712.784863451954,360.378381699593,NaN,NaN,729.712474266665,845.121732464271,1011.40458100154,742.594190385041,1000.94274216971,443.006323791957,712.784863451954,360.378381699593,545.155339110131,608.899371659138,0,0,0,0,0,4,0,NaN,horizontal,vertical,horizontal,horizontal,horizontal,none
1c,14,100151,3,57,185,20,F,NA,variable,homogeneous,3,present,0.721404075622559,1,vertical,vertical,1,0.811761388778687,green,3,2,760.109211414741,348.13947314824,1038.06300875679,691.383827134052,601.827779828472,760.476699717708,1038.06300875679,691.383827134052,760.109211414741,348.13947314824,0,0,0,0,0,0,0,0,4,NaN,NaN,NaN,horizontal,horizontal,vertical,none,none,none
1c,14,100151,3,58,186,20,F,NA,variable,homogeneous,3,absent,0.68991494178772,1,horizontal,horizontal,1,1.09410990715027,green,1,NaN,653.738008730483,808.883771293693,NaN,NaN,653.738008730483,808.883771293693,1054.0296480134,622.224714400653,692.232343256122,368.891514305654,0,0,0,0,0,0,4,0,0,NaN,NaN,NaN,horizontal,horizontal,vertical,none,none,none
1c,14,100151,3,59,187,20,F,NA,variable,homogeneous,6,present,0.673408985137939,1,horizontal,horizontal,1,0.682351651191711,red,5,1,552.574589799621,538.309916622085,870.287525733335,845.121732464271,870.287525733335,845.121732464271,1047.42541020038,661.690083377915,977.137884467044,416.568350913644,729.712474266665,354.878267535729,552.574589799621,538.309916622085,622.862115532956,783.431649086356,0,0,0,0,4,0,vertical,horizontal,vertical,vertical,horizontal,horizontal
1c,14,100151,3,60,188,20,F,NA,variable,homogeneous,4,absent,0.60049295425415,1,horizontal,horizontal,1,0.670587129592895,red,3,NaN,773.345241866748,346.39691668109,NaN,NaN,826.654758133252,853.60308331891,1053.60308331891,573.345241866748,773.345241866748,346.39691668109,546.39691668109,626.654758133252,0,0,0,0,0,0,4,0,NaN,NaN,horizontal,vertical,horizontal,horizontal,none,none
1c,14,100151,3,61,189,20,F,NA,variable,homogeneous,5,present,1.05388379096985,1,vertical,vertical,1,0.647058086395264,green,5,3,626.090418184063,786.495193912888,831.076682568313,346.900731331463,923.626453162816,823.028025320546,1050.31493177915,551.343706178981,831.076682568313,346.900731331463,568.891514305654,492.232343256122,626.090418184063,786.495193912888,0,0,0,0,0,0,4,NaN,horizontal,vertical,vertical,horizontal,vertical,none
1c,14,100151,3,62,190,20,F,NA,variable,homogeneous,3,absent,0.485762119293213,1,vertical,vertical,1,0.741174259185791,red,2,NaN,1027.20666366803,715.767577433584,NaN,NaN,586.139005173917,738.882953928832,1027.20666366803,715.767577433584,786.654331158049,345.349468637584,0,0,0,0,0,0,0,4,0,NaN,NaN,NaN,vertical,vertical,vertical,none,none,none
1c,14,100151,3,63,191,20,F,NA,variable,homogeneous,5,absent,0.668838977813721,1,horizontal,horizontal,1,0.85881947517395,red,1,NaN,751.343706178981,850.314931779154,NaN,NaN,751.343706178981,850.314931779154,1023.02802532055,723.626453162816,986.495193912888,426.090418184063,692.232343256122,368.891514305654,546.900731331463,631.076682568313,0,0,4,0,0,0,0,NaN,horizontal,vertical,vertical,vertical,horizontal,none
1c,14,100151,3,64,192,20,F,NA,variable,homogeneous,4,present,0.580105066299438,1,vertical,vertical,1,1.08234538555145,green,2,1,1051.86052685176,560.109211414741,839.890788585259,851.86052685176,839.890788585259,851.86052685176,1051.86052685176,560.109211414741,760.109211414741,348.13947314824,548.13947314824,639.890788585259,0,0,0,0,0,4,0,0,NaN,NaN,horizontal,vertical,vertical,vertical,none,none
1c,14,100151,4,1,193,20,F,NA,variable,homogeneous,3,present,0.525904893875122,1,vertical,vertical,1,0.6,green,2,3,1054.96116226488,595.549636358493,668.665290897936,381.422338320961,676.373546837184,823.028025320546,1054.96116226488,595.549636358493,668.665290897936,381.422338320961,0,0,0,0,0,0,0,4,0,NaN,NaN,NaN,horizontal,vertical,horizontal,none,none,none
1c,14,100151,4,2,194,20,F,NA,variable,homogeneous,5,present,0.610230922698975,1,vertical,vertical,1,1.08234538555145,green,1,3,668.665290897936,818.577661679039,1034.72873763037,500.363562235235,668.665290897936,818.577661679039,967.295052392579,792.450942956807,1034.72873763037,500.363562235235,777.775285599347,345.970351986605,551.535633479765,542.637481142314,0,0,4,0,0,0,0,NaN,vertical,horizontal,horizontal,horizontal,horizontal,none
1c,14,100151,4,3,195,20,F,NA,variable,homogeneous,6,present,0.613968849182129,1,horizontal,horizontal,1,0.776467823982239,green,5,4,664.870587620533,383.747735480111,919.715248510402,374.848363820974,680.284751489598,825.151636179026,935.129412379467,816.252264519889,1054.84466088987,591.100628340862,919.715248510402,374.848363820974,664.870587620533,383.747735480111,545.155339110131,608.899371659138,0,0,0,0,4,0,vertical,vertical,vertical,horizontal,horizontal,horizontal
1c,14,100151,4,4,196,20,F,NA,variable,homogeneous,6,present,0.795122146606445,1,vertical,vertical,1,1.03528729915619,green,5,1,607.549057043193,432.704947607421,751.343706178981,850.314931779154,751.343706178981,850.314931779154,992.450942956807,767.295052392579,1041.10723677783,516.980120613425,848.656293821019,349.685068220846,607.549057043193,432.704947607421,558.892763222174,683.019879386575,0,0,0,0,4,0,vertical,vertical,horizontal,vertical,vertical,horizontal
1c,14,100151,4,5,197,20,F,NA,variable,homogeneous,6,present,1.02151489257812,1,vertical,vertical,1,0.717645215988159,green,6,2,552.574589799621,661.690083377915,977.137884467044,783.431649086356,729.712474266665,845.121732464271,977.137884467044,783.431649086356,1047.42541020038,538.309916622085,870.287525733335,354.878267535729,622.862115532956,416.568350913644,552.574589799621,661.690083377915,0,0,0,0,0,4,horizontal,horizontal,horizontal,vertical,horizontal,vertical
1c,14,100151,4,6,198,20,F,NA,variable,homogeneous,3,present,0.922033071517944,1,vertical,vertical,1,1.01175825595856,red,1,2,813.345668841951,854.650531362416,1013.86099482608,461.117046071168,813.345668841951,854.650531362416,1013.86099482608,461.117046071168,572.793336331966,484.232422566416,0,0,0,0,0,0,4,0,0,NaN,NaN,NaN,vertical,horizontal,vertical,none,none,none
1c,14,100151,4,7,199,20,F,NA,variable,homogeneous,3,absent,0.659610033035278,1,horizontal,horizontal,1,0.741174259185791,red,3,NaN,646.537169096228,396.34794493794,NaN,NaN,700.363562235235,834.728737630372,1053.09926866854,568.923317431687,646.537169096228,396.34794493794,0,0,0,0,0,0,0,0,4,NaN,NaN,NaN,vertical,horizontal,horizontal,none,none,none
1c,14,100151,4,8,200,20,F,NA,variable,homogeneous,5,absent,0.622989892959595,1,vertical,vertical,1,1.09410990715027,red,5,NaN,636.089159529932,795.341332995339,NaN,NaN,935.129412379467,816.252264519889,1047.42541020038,538.309916622085,817.787900804752,345.621167183745,563.568117085469,504.475318678942,636.089159529932,795.341332995339,0,0,0,0,0,0,4,NaN,vertical,horizontal,vertical,vertical,vertical,none
1c,14,100151,4,9,201,20,F,NA,variable,homogeneous,5,present,0.713809013366699,1,vertical,vertical,1,0.905877561569214,green,2,1,1025.15163617903,719.715248510402,755.719714694933,851.125977018113,755.719714694933,851.125977018113,1025.15163617903,719.715248510402,983.431649086356,422.862115532956,688.215357568785,370.807518193712,547.481642470899,635.489140744817,0,0,0,4,0,0,0,NaN,horizontal,vertical,vertical,horizontal,vertical,none
1c,14,100151,4,10,202,20,F,NA,variable,homogeneous,3,absent,0.553032875061035,1,horizontal,horizontal,1,0.835290431976318,green,2,NaN,973.909581815937,413.504806087112,NaN,NaN,874.554784704298,843.857712770574,973.909581815937,413.504806087112,551.535633479765,542.637481142314,0,0,0,0,0,0,0,4,0,NaN,NaN,NaN,vertical,horizontal,vertical,none,none,none
1c,14,100151,4,11,203,20,F,NA,variable,homogeneous,3,present,0.558897972106934,1,horizontal,horizontal,1,0.91764208316803,green,3,2,755.719714694933,348.874022981887,1039.62161830041,687.215136548046,604.658667004661,763.910840470068,1039.62161830041,687.215136548046,755.719714694933,348.874022981887,0,0,0,0,0,0,0,0,4,NaN,NaN,NaN,horizontal,horizontal,horizontal,none,none,none
1c,14,100151,4,12,204,20,F,NA,variable,homogeneous,4,present,0.512532949447632,1,horizontal,horizontal,1,0.729409737586975,green,2,3,1053.60308331891,573.345241866748,773.345241866748,346.39691668109,826.654758133252,853.60308331891,1053.60308331891,573.345241866748,773.345241866748,346.39691668109,546.39691668109,626.654758133252,0,0,0,0,0,4,0,0,NaN,NaN,horizontal,horizontal,vertical,horizontal,none,none
1c,14,100151,4,13,205,20,F,NA,variable,homogeneous,5,present,1.45056509971619,1,horizontal,horizontal,1,0.976464691162109,red,3,5,938.882953928832,386.139005173917,561.936991243214,691.383827134052,813.345668841951,854.650531362416,1046.31108570371,665.998856501143,938.882953928832,386.139005173917,639.523300282292,401.827779828472,561.936991243214,691.383827134052,0,0,0,0,4,0,0,NaN,vertical,vertical,horizontal,horizontal,horizontal,none
1c,14,100151,4,14,206,20,F,NA,variable,homogeneous,4,absent,0.733816862106323,1,horizontal,horizontal,1,0.905877561569214,red,1,NaN,973.909581815937,786.495193912888,NaN,NaN,973.909581815937,786.495193912888,986.495193912888,426.090418184063,626.090418184063,413.504806087112,613.504806087112,773.909581815937,0,0,0,0,4,0,0,0,NaN,NaN,horizontal,horizontal,horizontal,vertical,none,none
1c,14,100151,4,15,207,20,F,NA,variable,homogeneous,3,absent,0.501290082931519,1,horizontal,horizontal,1,0.835290431976318,green,1,NaN,808.899371659138,854.844660889869,NaN,NaN,808.899371659138,854.844660889869,1016.25226451989,464.870587620533,574.848363820974,480.284751489598,0,0,0,0,0,0,4,0,0,NaN,NaN,NaN,horizontal,vertical,vertical,none,none,none
1c,14,100151,4,16,208,20,F,NA,variable,homogeneous,4,present,0.51970386505127,1,horizontal,horizontal,1,0.611764521598816,red,1,3,826.654758133252,853.60308331891,773.345241866748,346.39691668109,826.654758133252,853.60308331891,1053.60308331891,573.345241866748,773.345241866748,346.39691668109,546.39691668109,626.654758133252,0,0,0,0,4,0,0,0,NaN,NaN,horizontal,vertical,vertical,vertical,none,none
1c,14,100151,4,17,209,20,F,NA,variable,homogeneous,5,absent,0.669304132461548,1,horizontal,horizontal,1,0.952935647964477,red,2,NaN,1000.94274216971,756.993676208043,NaN,NaN,712.784863451954,839.621618300407,1000.94274216971,756.993676208043,1011.40458100154,457.40580961496,729.712474266665,354.878267535729,545.155339110131,591.100628340862,0,0,0,4,0,0,0,NaN,horizontal,horizontal,horizontal,vertical,vertical,none
1c,14,100151,4,18,210,20,F,NA,variable,homogeneous,5,absent,0.541869878768921,1,vertical,vertical,1,0.741174259185791,green,5,NaN,549.685068220846,551.343706178981,NaN,NaN,676.373546837184,823.028025320546,973.909581815937,786.495193912888,1031.10848569435,492.232343256122,768.923317431687,346.900731331463,549.685068220846,551.343706178981,0,0,0,0,0,0,4,NaN,vertical,vertical,horizontal,vertical,vertical,none
1c,14,100151,4,19,211,20,F,NA,variable,homogeneous,3,absent,0.525464057922363,1,vertical,vertical,1,0.823525910377502,green,1,NaN,672.5,820.836477965032,NaN,NaN,672.5,820.836477965032,1055,600,672.5,379.163522034968,0,0,0,0,0,0,4,0,0,NaN,NaN,NaN,vertical,vertical,horizontal,none,none,none
1c,14,100151,4,20,212,20,F,NA,variable,homogeneous,3,absent,0.639367818832397,1,horizontal,horizontal,1,0.764703302383423,red,2,NaN,1052.5183575291,564.510859255183,NaN,NaN,704.475318678942,836.431882914531,1052.5183575291,564.510859255183,643.006323791957,399.057257830286,0,0,0,0,0,0,0,4,0,NaN,NaN,NaN,vertical,horizontal,vertical,none,none,none
1c,14,100151,4,21,213,20,F,NA,variable,homogeneous,5,absent,0.490591049194336,1,horizontal,horizontal,1,0.717645215988159,green,5,NaN,549.685068220846,648.656293821019,NaN,NaN,768.923317431687,853.099268668537,1031.10848569435,707.767656743878,973.909581815937,413.504806087112,676.373546837184,376.971974679454,549.685068220846,648.656293821019,0,0,0,0,0,0,4,NaN,vertical,horizontal,horizontal,horizontal,horizontal,none
1c,14,100151,4,22,214,20,F,NA,variable,homogeneous,4,absent,0.599897861480713,1,vertical,vertical,1,0.964700169563294,red,2,NaN,1051.12597701811,644.280285305067,NaN,NaN,755.719714694933,851.125977018113,1051.12597701811,644.280285305067,844.280285305067,348.874022981887,548.874022981887,555.719714694933,0,0,0,0,0,4,0,0,NaN,NaN,horizontal,vertical,horizontal,horizontal,none,none
1c,14,100151,4,23,215,20,F,NA,variable,homogeneous,4,present,0.910964012145996,1,vertical,vertical,1,0.741174259185791,red,4,1,604.658667004661,763.910840470068,963.910840470068,795.341332995339,963.910840470068,795.341332995339,995.341332995339,436.089159529932,636.089159529932,404.658667004661,604.658667004661,763.910840470068,0,0,0,0,0,0,0,4,NaN,NaN,horizontal,horizontal,vertical,vertical,none,none
1c,14,100151,4,24,216,20,F,NA,variable,homogeneous,5,present,0.766023874282837,1,horizontal,horizontal,1,0.635293564796448,green,4,3,576.971974679454,476.373546837184,848.656293821019,349.685068220846,907.767656743878,831.108485694346,1053.09926866854,568.923317431687,848.656293821019,349.685068220846,576.971974679454,476.373546837184,613.504806087112,773.909581815937,0,0,0,0,0,4,0,NaN,vertical,horizontal,horizontal,horizontal,horizontal,none
1c,14,100151,4,25,217,20,F,NA,variable,homogeneous,6,present,0.895432949066162,1,vertical,vertical,1,0.694116172790527,red,1,2,696.282156015671,832.954091698863,949.885239334581,806.299333565612,696.282156015671,832.954091698863,949.885239334581,806.299333565612,1053.60308331891,573.345241866748,903.717843984329,367.045908301137,650.114760665419,393.700666434388,546.39691668109,626.654758133252,4,0,0,0,0,0,vertical,horizontal,vertical,horizontal,horizontal,horizontal
1c,14,100151,4,26,218,20,F,NA,variable,homogeneous,3,present,0.783421993255615,1,vertical,vertical,1,0.694116172790527,green,1,3,1011.40458100154,742.594190385041,570.807518193712,711.784642431215,1011.40458100154,742.594190385041,817.787900804752,345.621167183745,570.807518193712,711.784642431215,0,0,0,0,0,0,4,0,0,NaN,NaN,NaN,vertical,vertical,horizontal,none,none,none
1c,14,100151,4,27,219,20,F,NA,variable,homogeneous,5,present,0.871240854263306,1,vertical,vertical,1,1.01175825595856,red,4,2,567.045908301137,496.282156015671,1049.42763818712,546.982518841471,927.5,820.836477965032,1049.42763818712,546.982518841471,826.654758133252,346.39691668109,567.045908301137,496.282156015671,629.371695378491,789.501930496736,0,0,0,0,0,4,0,NaN,vertical,horizontal,horizontal,vertical,vertical,none
1c,14,100151,4,28,220,20,F,NA,variable,homogeneous,3,absent,0.523308992385864,1,vertical,vertical,1,0.905877561569214,red,2,NaN,1023.02802532055,723.626453162816,NaN,NaN,581.422338320961,731.334709102064,1023.02802532055,723.626453162816,795.549636358493,345.03883773512,0,0,0,0,0,0,0,4,0,NaN,NaN,NaN,horizontal,vertical,horizontal,none,none,none
1c,14,100151,4,29,221,20,F,NA,variable,homogeneous,4,present,0.641490936279297,1,horizontal,horizontal,1,0.776467823982239,red,4,2,579.163522034968,472.5,1020.83647796503,727.5,672.5,820.836477965032,1020.83647796503,727.5,927.5,379.163522034968,579.163522034968,472.5,0,0,0,0,0,0,0,4,NaN,NaN,horizontal,vertical,vertical,horizontal,none,none
1c,14,100151,4,30,222,20,F,NA,variable,homogeneous,5,absent,0.502197980880737,1,horizontal,horizontal,1,0.788232345581055,red,4,NaN,607.549057043193,432.704947607421,NaN,NaN,857.362518857686,848.464366520235,1054.0296480134,622.224714400653,899.636437764765,365.271262369628,607.549057043193,432.704947607421,581.422338320961,731.334709102064,0,0,0,0,0,4,0,NaN,horizontal,horizontal,horizontal,horizontal,horizontal,none
1c,14,100151,4,31,223,20,F,NA,variable,homogeneous,5,absent,0.500344038009644,0,vertical,horizontal,1,0.999993734359741,red,5,NaN,554.878267535729,529.712474266665,NaN,NaN,657.405809614959,811.404581001536,956.993676208043,800.942742169714,1039.62161830041,512.784863451954,791.100628340862,345.155339110131,554.878267535729,529.712474266665,0,0,0,0,0,0,4,NaN,vertical,horizontal,horizontal,horizontal,vertical,none
1c,14,100151,4,32,224,20,F,NA,variable,homogeneous,6,present,0.990243911743164,1,vertical,vertical,1,0.988229212760925,red,4,6,782.212099195248,345.621167183745,588.595418998464,742.594190385041,817.787900804752,854.378832816255,1029.19248180629,711.784642431215,1011.40458100154,457.40580961496,782.212099195248,345.621167183745,570.807518193712,488.215357568785,588.595418998464,742.594190385041,0,0,0,4,0,0,vertical,vertical,horizontal,vertical,horizontal,horizontal
1c,14,100151,4,33,225,20,F,NA,variable,homogeneous,6,absent,0.496650218963623,1,vertical,vertical,1,0.91764208316803,red,4,NaN,891.383827134052,361.936991243214,NaN,NaN,708.616172865948,838.063008756786,960.476699717708,798.172220171528,1051.86052685176,560.109211414741,891.383827134052,361.936991243214,639.523300282292,401.827779828472,548.13947314824,639.890788585259,0,0,0,4,0,0,vertical,vertical,vertical,vertical,horizontal,vertical
1c,14,100151,4,34,226,20,F,NA,variable,homogeneous,5,absent,0.600658893585205,1,vertical,vertical,1,0.894113039970398,green,5,NaN,554.878267535729,529.712474266665,NaN,NaN,657.405809614959,811.404581001536,956.993676208043,800.942742169714,1039.62161830041,512.784863451954,791.100628340862,345.155339110131,554.878267535729,529.712474266665,0,0,0,0,0,0,4,NaN,vertical,vertical,vertical,horizontal,vertical,none
1c,14,100151,4,35,227,20,F,NA,variable,homogeneous,6,absent,0.678338050842285,1,horizontal,horizontal,1,0.670587129592895,red,1,NaN,915.767577433584,827.206663668034,NaN,NaN,915.767577433584,827.206663668034,1054.65053136242,613.345668841951,938.882953928832,386.139005173917,684.232422566416,372.793336331966,545.349468637584,586.654331158049,661.117046071168,813.860994826083,4,0,0,0,0,0,horizontal,vertical,horizontal,vertical,horizontal,horizontal
1c,14,100151,4,36,228,20,F,NA,variable,homogeneous,3,absent,0.756891012191772,1,vertical,vertical,1,0.647058086395264,red,1,NaN,1008.88377129369,746.261991269517,NaN,NaN,1008.88377129369,746.261991269517,822.224714400653,345.970351986605,568.891514305654,707.767656743878,0,0,0,0,0,0,4,0,0,NaN,NaN,NaN,vertical,horizontal,horizontal,none,none,none
1c,14,100151,4,37,229,20,F,NA,variable,homogeneous,3,absent,0.522130966186523,1,vertical,vertical,1,0.894113039970398,green,3,NaN,738.309916622085,352.574589799621,NaN,NaN,616.568350913644,777.137884467044,1045.12173246427,670.287525733335,738.309916622085,352.574589799621,0,0,0,0,0,0,0,0,4,NaN,NaN,NaN,vertical,horizontal,vertical,none,none,none
1c,14,100151,4,38,230,20,F,NA,variable,homogeneous,4,present,0.477421045303345,1,vertical,vertical,1,0.635293564796448,green,3,4,746.982518841471,350.57236181288,550.57236181288,653.017481158529,853.017481158529,849.42763818712,1049.42763818712,546.982518841471,746.982518841471,350.57236181288,550.57236181288,653.017481158529,0,0,0,0,0,0,4,0,NaN,NaN,horizontal,vertical,vertical,horizontal,none,none
1c,14,100151,4,39,231,20,F,NA,variable,homogeneous,3,present,0.850204944610596,1,horizontal,horizontal,1,0.952935647964477,red,3,1,550.57236181288,546.982518841471,878.799333565612,842.519411655264,878.799333565612,842.519411655264,970.628304621509,410.498069503264,550.57236181288,546.982518841471,0,0,0,0,0,0,0,0,4,NaN,NaN,NaN,vertical,horizontal,horizontal,none,none,none
1c,14,100151,4,40,232,20,F,NA,variable,homogeneous,5,present,0.952214956283569,1,vertical,vertical,1,0.847054953575134,red,2,4,1054.84466088987,591.100628340862,588.595418998464,457.40580961496,887.215136548046,839.621618300407,1054.84466088987,591.100628340862,870.287525733335,354.878267535729,588.595418998464,457.40580961496,599.057257830286,756.993676208043,0,0,0,4,0,0,0,NaN,vertical,vertical,horizontal,horizontal,vertical,none
1c,14,100151,4,41,233,20,F,NA,variable,homogeneous,6,present,0.762758016586304,1,horizontal,horizontal,1,0.952935647964477,green,5,4,607.549057043193,432.704947607421,848.656293821019,349.685068220846,751.343706178981,850.314931779154,992.450942956807,767.295052392579,1041.10723677783,516.980120613425,848.656293821019,349.685068220846,607.549057043193,432.704947607421,558.892763222174,683.019879386575,0,0,0,0,4,0,vertical,vertical,vertical,horizontal,horizontal,vertical
1c,14,100151,4,42,234,20,F,NA,variable,homogeneous,4,absent,0.604653120040894,1,vertical,vertical,1,0.929406604766846,green,1,NaN,721.200666434388,842.519411655264,NaN,NaN,721.200666434388,842.519411655264,1042.51941165526,678.799333565612,878.799333565612,357.480588344736,557.480588344736,521.200666434388,0,0,0,0,4,0,0,0,NaN,NaN,vertical,vertical,horizontal,horizontal,none,none
1c,14,100151,4,43,235,20,F,NA,variable,homogeneous,3,present,0.58904504776001,1,horizontal,horizontal,1,0.811761388778687,red,2,1,1031.10848569435,492.232343256122,777.775285599347,854.029648013395,777.775285599347,854.029648013395,1031.10848569435,492.232343256122,591.116228706307,453.738008730483,0,0,0,0,0,0,0,4,0,NaN,NaN,NaN,horizontal,horizontal,vertical,none,none,none
1c,14,100151,4,44,236,20,F,NA,variable,homogeneous,4,absent,0.68091893196106,1,horizontal,horizontal,1,0.988229212760925,red,1,NaN,786.654331158049,854.650531362416,NaN,NaN,786.654331158049,854.650531362416,1054.65053136242,613.345668841951,813.345668841951,345.349468637584,545.349468637584,586.654331158049,0,0,0,0,4,0,0,0,NaN,NaN,horizontal,horizontal,vertical,vertical,none,none
1c,14,100151,4,45,237,20,F,NA,variable,homogeneous,6,present,0.522232055664062,1,horizontal,horizontal,1,0.788232345581055,red,4,6,919.715248510402,374.848363820974,545.155339110131,608.899371659138,680.284751489598,825.151636179026,935.129412379467,816.252264519889,1054.84466088987,591.100628340862,919.715248510402,374.848363820974,664.870587620533,383.747735480111,545.155339110131,608.899371659138,0,0,0,4,0,0,horizontal,horizontal,vertical,horizontal,horizontal,horizontal
1c,14,100151,4,46,238,20,F,NA,variable,homogeneous,6,absent,0.562851905822754,1,horizontal,horizontal,1,0.694116172790527,green,2,NaN,995.341332995339,763.910840470068,NaN,NaN,755.719714694933,851.125977018113,995.341332995339,763.910840470068,1039.62161830041,512.784863451954,844.280285305067,348.874022981887,604.658667004661,436.089159529932,560.378381699593,687.215136548046,0,4,0,0,0,0,vertical,horizontal,vertical,vertical,vertical,horizontal
1c,14,100151,4,47,239,20,F,NA,variable,homogeneous,4,absent,0.743123054504395,1,vertical,vertical,1,0.647058086395264,green,3,NaN,725.445215295702,356.142287229426,NaN,NaN,874.554784704298,843.857712770574,1043.85771277057,525.445215295702,725.445215295702,356.142287229426,556.142287229426,674.554784704298,0,0,0,0,0,0,4,0,NaN,NaN,horizontal,horizontal,vertical,horizontal,none,none
1c,14,100151,4,48,240,20,F,NA,variable,homogeneous,4,absent,0.538889169692993,1,vertical,vertical,1,0.635293564796448,red,1,NaN,708.616172865948,838.063008756786,NaN,NaN,708.616172865948,838.063008756786,1038.06300875679,691.383827134052,891.383827134052,361.936991243214,561.936991243214,508.616172865948,0,0,0,0,4,0,0,0,NaN,NaN,vertical,horizontal,vertical,horizontal,none,none
1c,14,100151,4,49,241,20,F,NA,variable,homogeneous,4,present,0.505565881729126,1,vertical,vertical,1,1.01175825595856,red,3,1,716.980120613425,358.892763222174,883.019879386575,841.107236777826,883.019879386575,841.107236777826,1041.10723677783,516.980120613425,716.980120613425,358.892763222174,558.892763222174,683.019879386575,0,0,0,0,0,0,4,0,NaN,NaN,vertical,horizontal,vertical,horizontal,none,none
1c,14,100151,4,50,242,20,F,NA,variable,homogeneous,6,absent,0.669697046279907,1,vertical,vertical,1,0.870583996772766,red,5,NaN,599.057257830286,443.006323791957,NaN,NaN,764.510859255183,852.518357529101,1000.94274216971,756.993676208043,1036.43188291453,504.475318678942,835.489140744817,347.4816424709,599.057257830286,443.006323791957,563.568117085469,695.524681321058,0,0,0,0,4,0,vertical,horizontal,vertical,vertical,vertical,vertical
1c,14,100151,4,51,243,20,F,NA,variable,homogeneous,5,absent,0.604314804077148,1,horizontal,horizontal,1,1.04705182075501,green,2,NaN,1055,600,NaN,NaN,878.799333565612,842.519411655264,1055,600,878.799333565612,357.480588344736,593.700666434388,450.114760665419,593.700666434388,749.885239334581,0,0,0,4,0,0,0,NaN,vertical,horizontal,vertical,horizontal,horizontal,none
1c,14,100151,4,52,244,20,F,NA,variable,homogeneous,6,absent,0.945421934127808,0,vertical,horizontal,1,0.647058086395264,green,5,NaN,593.700666434388,450.114760665419,NaN,NaN,773.345241866748,853.60308331891,1006.29933356561,749.885239334581,1032.95409169886,496.282156015671,826.654758133252,346.39691668109,593.700666434388,450.114760665419,567.045908301137,703.717843984329,0,0,0,0,4,0,vertical,vertical,vertical,vertical,vertical,horizontal
1c,14,100151,4,53,245,20,F,NA,variable,homogeneous,5,present,0.577438116073608,1,horizontal,horizontal,1,1.04705182075501,green,3,4,808.899371659138,345.155339110131,560.378381699593,512.784863451954,942.594190385041,811.404581001536,1045.12173246427,529.712474266665,808.899371659138,345.155339110131,560.378381699593,512.784863451954,643.006323791957,800.942742169714,0,0,0,0,4,0,0,NaN,vertical,horizontal,horizontal,horizontal,vertical,none
