experiment,subject,uniqueID,block,trial,trial_cumulative,age,gender,color_cond_blocking,color_history,shape_type,set_size,distractor,rt,acc,target_orient,response_key,response_made,iti,target_color,target_item,distractor_item,target_X,target_Y,distractor_X,distractor_Y,item1_X,item1_Y,item2_X,item2_Y,item3_X,item3_Y,item4_X,item4_Y,item5_X,item5_Y,item6_X,item6_Y,item1_shape,item2_shape,item3_shape,item4_shape,item5_shape,item6_shape,item1_line,item2_line,item3_line,item4_line,item5_line,item6_line
1c,15,100142,1,1,1,22,F,NA,variable,homogeneous,5,absent,1.34988689422607,1,vertical,vertical,1,0.647057413285778,red,4,NaN,746.982518841471,350.57236181288,NaN,NaN,696.282156015671,832.954091698863,989.501930496736,770.628304621509,1020.83647796503,472.5,746.982518841471,350.57236181288,546.39691668109,573.345241866748,0,0,0,0,0,4,0,NaN,vertical,horizontal,vertical,vertical,vertical,none
1c,15,100142,1,2,2,22,F,NA,variable,homogeneous,5,present,0.961672067642212,1,vertical,vertical,1,0.847051419750337,green,1,2,861.690083377915,847.425410200379,1054.37883281626,617.787900804752,861.690083377915,847.425410200379,1054.37883281626,617.787900804752,895.524681321058,363.568117085469,604.658667004661,436.089159529932,583.747735480111,735.129412379467,0,0,4,0,0,0,0,NaN,vertical,vertical,vertical,horizontal,horizontal,none
1c,15,100142,1,3,3,22,F,NA,variable,homogeneous,4,absent,0.594851016998291,1,vertical,vertical,1,0.90587318635756,red,3,NaN,977.137884467044,416.568350913644,NaN,NaN,622.862115532956,783.431649086356,983.431649086356,777.137884467044,977.137884467044,416.568350913644,616.568350913644,422.862115532956,0,0,0,0,0,0,4,0,NaN,NaN,horizontal,vertical,vertical,vertical,none,none
1c,15,100142,1,4,4,22,F,NA,variable,homogeneous,3,absent,0.653822898864746,1,horizontal,horizontal,1,0.717643533214446,green,3,NaN,546.39691668109,626.654758133252,NaN,NaN,949.885239334581,806.299333565612,903.717843984329,367.045908301137,546.39691668109,626.654758133252,0,0,0,0,0,0,0,0,4,NaN,NaN,NaN,vertical,horizontal,horizontal,none,none,none
1c,15,100142,1,5,5,22,F,NA,variable,homogeneous,4,absent,1.12322592735291,1,horizontal,horizontal,1,0.823522713107447,red,1,NaN,899.636437764765,834.728737630372,NaN,NaN,899.636437764765,834.728737630372,1034.72873763037,500.363562235235,700.363562235235,365.271262369628,565.271262369628,699.636437764765,0,0,0,0,4,0,0,0,NaN,NaN,horizontal,horizontal,vertical,horizontal,none,none
1c,15,100142,1,6,6,22,F,NA,variable,homogeneous,4,present,0.763309001922607,1,horizontal,horizontal,1,1.07057413285778,green,1,2,661.117046071168,813.860994826083,1013.86099482608,738.882953928832,661.117046071168,813.860994826083,1013.86099482608,738.882953928832,938.882953928832,386.139005173917,586.139005173917,461.117046071168,0,0,0,0,4,0,0,0,NaN,NaN,horizontal,horizontal,horizontal,vertical,none,none
1c,15,100142,1,7,7,22,F,NA,variable,homogeneous,5,present,0.828224897384644,0,vertical,horizontal,1,0.870580126393226,red,5,4,545.621167183745,582.212099195248,738.309916622085,352.574589799621,704.475318678942,836.431882914531,995.341332995339,763.910840470068,1016.25226451989,464.870587620533,738.309916622085,352.574589799621,545.621167183745,582.212099195248,0,0,0,0,0,0,4,NaN,vertical,vertical,vertical,horizontal,vertical,none
1c,15,100142,1,8,8,22,F,NA,variable,homogeneous,3,absent,0.857594966888428,0,vertical,horizontal,1,1.02351671957201,green,2,NaN,1046.31108570371,534.001143498857,NaN,NaN,734.001143498857,846.311085703712,1046.31108570371,534.001143498857,619.68777079743,419.68777079743,0,0,0,0,0,0,0,4,0,NaN,NaN,NaN,vertical,vertical,horizontal,none,none,none
1c,15,100142,1,9,9,22,F,NA,variable,homogeneous,3,absent,0.94880199432373,1,vertical,vertical,1,0.894108833036115,green,2,NaN,870.287525733335,354.878267535729,NaN,NaN,977.137884467044,783.431649086356,870.287525733335,354.878267535729,552.574589799621,661.690083377915,0,0,0,0,0,0,0,4,0,NaN,NaN,NaN,vertical,vertical,horizontal,none,none,none
1c,15,100142,1,10,10,22,F,NA,variable,homogeneous,6,absent,0.788203001022339,1,vertical,vertical,1,0.823522713107447,green,2,NaN,1003.65205506206,753.462830903772,NaN,NaN,768.923317431687,853.099268668537,1003.65205506206,753.462830903772,1034.72873763037,500.363562235235,831.076682568313,346.900731331463,596.34794493794,446.537169096228,565.271262369628,699.636437764765,0,4,0,0,0,0,horizontal,vertical,vertical,vertical,vertical,vertical
1c,15,100142,1,11,11,22,F,NA,variable,homogeneous,6,present,1.04343104362488,1,horizontal,horizontal,1,0.75293659317878,green,1,4,911.784642431215,829.192481806288,688.215357568785,370.807518193712,911.784642431215,829.192481806288,1054.37883281626,617.787900804752,942.594190385041,388.595418998464,688.215357568785,370.807518193712,545.621167183745,582.212099195248,657.405809614959,811.404581001536,4,0,0,0,0,0,horizontal,vertical,horizontal,vertical,horizontal,horizontal
1c,15,100142,1,12,12,22,F,NA,variable,homogeneous,4,absent,0.72063684463501,1,vertical,vertical,1,0.811758359786003,green,1,NaN,817.787900804752,854.378832816255,NaN,NaN,817.787900804752,854.378832816255,1054.37883281626,582.212099195248,782.212099195248,345.621167183745,545.621167183745,617.787900804752,0,0,0,0,4,0,0,0,NaN,NaN,vertical,vertical,vertical,horizontal,none,none
1c,15,100142,1,13,13,22,F,NA,variable,homogeneous,4,absent,0.613637924194336,1,vertical,vertical,1,0.929401893000449,green,1,NaN,938.882953928832,813.860994826083,NaN,NaN,938.882953928832,813.860994826083,1013.86099482608,461.117046071168,661.117046071168,386.139005173917,586.139005173917,738.882953928832,0,0,0,0,4,0,0,0,NaN,NaN,vertical,horizontal,horizontal,vertical,none,none
1c,15,100142,1,14,14,22,F,NA,variable,homogeneous,3,present,0.67218804359436,1,vertical,vertical,1,1.09410283950067,red,1,3,998.172220171528,760.476699717708,561.936991243214,691.383827134052,998.172220171528,760.476699717708,839.890788585259,348.13947314824,561.936991243214,691.383827134052,0,0,0,0,0,0,4,0,0,NaN,NaN,NaN,vertical,horizontal,horizontal,none,none,none
1c,15,100142,1,15,15,22,F,NA,variable,homogeneous,6,absent,0.558937072753906,1,horizontal,horizontal,1,1.04704542621489,green,1,NaN,848.656293821019,850.314931779154,NaN,NaN,848.656293821019,850.314931779154,1041.10723677783,683.019879386575,992.450942956807,432.704947607421,751.343706178981,349.685068220846,558.892763222174,516.980120613425,607.549057043193,767.295052392579,4,0,0,0,0,0,horizontal,vertical,horizontal,horizontal,vertical,vertical
1c,15,100142,1,16,16,22,F,NA,variable,homogeneous,3,present,0.881639957427979,1,vertical,vertical,1,0.776465299821669,green,1,2,953.462830903772,803.65205506206,899.636437764765,365.271262369628,953.462830903772,803.65205506206,899.636437764765,365.271262369628,546.900731331463,631.076682568313,0,0,0,0,0,0,4,0,0,NaN,NaN,NaN,vertical,horizontal,vertical,none,none,none
1c,15,100142,1,17,17,22,F,NA,variable,homogeneous,5,absent,0.712577104568481,1,vertical,vertical,1,0.858815773071781,red,1,NaN,755.719714694933,851.125977018113,NaN,NaN,755.719714694933,851.125977018113,1025.15163617903,719.715248510402,983.431649086356,422.862115532956,688.215357568785,370.807518193712,547.481642470899,635.489140744817,0,0,4,0,0,0,0,NaN,vertical,horizontal,horizontal,horizontal,vertical,none
1c,15,100142,1,18,18,22,F,NA,variable,homogeneous,4,present,1.25029182434082,1,vertical,vertical,1,0.952930599643338,green,2,4,1054.37883281626,582.212099195248,545.621167183745,617.787900804752,817.787900804752,854.378832816255,1054.37883281626,582.212099195248,782.212099195248,345.621167183745,545.621167183745,617.787900804752,0,0,0,0,0,4,0,0,NaN,NaN,horizontal,vertical,vertical,vertical,none,none
1c,15,100142,1,19,19,22,F,NA,variable,homogeneous,3,present,0.505657911300659,1,horizontal,horizontal,1,0.717643533214446,green,1,3,844.280285305067,851.125977018113,560.378381699593,512.784863451954,844.280285305067,851.125977018113,995.341332995339,436.089159529932,560.378381699593,512.784863451954,0,0,0,0,0,0,4,0,0,NaN,NaN,NaN,horizontal,horizontal,horizontal,none,none,none
1c,15,100142,1,20,20,22,F,NA,variable,homogeneous,6,present,0.640383958816528,1,vertical,vertical,1,0.611764353321445,red,2,1,963.910840470068,795.341332995339,712.784863451954,839.621618300407,712.784863451954,839.621618300407,963.910840470068,795.341332995339,1051.12597701811,555.719714694933,887.215136548046,360.378381699593,636.089159529932,404.658667004661,548.874022981887,644.280285305067,0,4,0,0,0,0,horizontal,vertical,horizontal,horizontal,vertical,horizontal
1c,15,100142,1,21,21,22,F,NA,variable,homogeneous,6,absent,1.54617404937744,1,horizontal,horizontal,1,0.847051419750337,red,3,NaN,1041.10723677783,516.980120613425,NaN,NaN,751.343706178981,850.314931779154,992.450942956807,767.295052392579,1041.10723677783,516.980120613425,848.656293821019,349.685068220846,607.549057043193,432.704947607421,558.892763222174,683.019879386575,0,0,4,0,0,0,vertical,horizontal,horizontal,horizontal,vertical,vertical
1c,15,100142,1,22,22,22,F,NA,variable,homogeneous,5,present,1.34089803695679,1,vertical,vertical,1,0.988223659607672,green,5,2,557.480588344736,678.799333565612,1042.51941165526,678.799333565612,800,855,1042.51941165526,678.799333565612,949.885239334581,393.700666434388,650.114760665419,393.700666434388,557.480588344736,678.799333565612,0,0,0,0,0,0,4,NaN,vertical,horizontal,vertical,vertical,vertical,none
1c,15,100142,1,23,23,22,F,NA,variable,homogeneous,4,present,0.739296913146973,1,horizontal,horizontal,1,0.75293659317878,red,4,3,550.57236181288,546.982518841471,853.017481158529,350.57236181288,746.982518841471,849.42763818712,1049.42763818712,653.017481158529,853.017481158529,350.57236181288,550.57236181288,546.982518841471,0,0,0,0,0,0,0,4,NaN,NaN,horizontal,horizontal,horizontal,horizontal,none,none
1c,15,100142,1,24,24,22,F,NA,variable,homogeneous,6,absent,NaN,0,vertical,none,0,0.6,red,4,NaN,696.282156015671,367.045908301137,NaN,NaN,903.717843984329,832.954091698863,1053.60308331891,626.654758133252,949.885239334581,393.700666434388,696.282156015671,367.045908301137,546.39691668109,573.345241866748,650.114760665419,806.299333565612,0,0,0,4,0,0,vertical,vertical,vertical,vertical,vertical,vertical
1c,15,100142,1,25,25,22,F,NA,variable,homogeneous,6,absent,1.05214881896973,1,horizontal,horizontal,1,0.894108833036115,green,2,NaN,1054.84466088987,608.899371659138,NaN,NaN,919.715248510402,825.151636179026,1054.84466088987,608.899371659138,935.129412379467,383.747735480111,680.284751489598,374.848363820974,545.155339110131,591.100628340862,664.870587620533,816.252264519889,0,4,0,0,0,0,vertical,horizontal,horizontal,vertical,horizontal,vertical
1c,15,100142,1,26,26,22,F,NA,variable,homogeneous,4,present,0.709707021713257,1,vertical,vertical,1,0.611764353321445,green,1,3,935.129412379467,816.252264519889,664.870587620533,383.747735480111,935.129412379467,816.252264519889,1016.25226451989,464.870587620533,664.870587620533,383.747735480111,583.747735480111,735.129412379467,0,0,0,0,4,0,0,0,NaN,NaN,vertical,horizontal,vertical,vertical,none,none
1c,15,100142,1,27,27,22,F,NA,variable,homogeneous,6,present,1.17461895942688,0,horizontal,vertical,1,0.929401893000449,red,5,3,596.34794493794,446.537169096228,1034.72873763037,500.363562235235,768.923317431687,853.099268668537,1003.65205506206,753.462830903772,1034.72873763037,500.363562235235,831.076682568313,346.900731331463,596.34794493794,446.537169096228,565.271262369628,699.636437764765,0,0,0,0,4,0,vertical,horizontal,vertical,horizontal,horizontal,vertical
1c,15,100142,1,28,28,22,F,NA,variable,homogeneous,6,absent,1.05563902854919,1,vertical,vertical,1,0.670586119928668,green,2,NaN,1034.72873763037,699.636437764765,NaN,NaN,831.076682568313,853.099268668537,1034.72873763037,699.636437764765,1003.65205506206,446.537169096228,768.923317431687,346.900731331463,565.271262369628,500.363562235235,596.34794493794,753.462830903772,0,4,0,0,0,0,vertical,vertical,vertical,horizontal,horizontal,vertical
1c,15,100142,1,29,29,22,F,NA,variable,homogeneous,3,absent,0.713580846786499,1,vertical,vertical,1,0.835287066428892,red,3,NaN,579.163522034968,727.5,NaN,NaN,1020.83647796503,727.5,800,345,579.163522034968,727.5,0,0,0,0,0,0,0,0,4,NaN,NaN,NaN,vertical,vertical,vertical,none,none,none
1c,15,100142,1,30,30,22,F,NA,variable,homogeneous,5,present,0.589854955673218,1,vertical,vertical,1,0.894108833036115,red,5,3,546.900731331463,568.923317431687,1023.02802532055,476.373546837184,692.232343256122,831.108485694346,986.495193912888,773.909581815937,1023.02802532055,476.373546837184,751.343706178981,349.685068220846,546.900731331463,568.923317431687,0,0,0,0,0,0,4,NaN,vertical,horizontal,vertical,horizontal,vertical,none
1c,15,100142,1,31,31,22,F,NA,variable,homogeneous,5,present,0.658566951751709,1,horizontal,horizontal,1,0.835287066428892,green,2,4,1050.31493177915,648.656293821019,626.090418184063,413.504806087112,831.076682568313,853.099268668537,1050.31493177915,648.656293821019,923.626453162816,376.971974679454,626.090418184063,413.504806087112,568.891514305654,707.767656743878,0,0,0,4,0,0,0,NaN,horizontal,horizontal,vertical,horizontal,vertical,none
1c,15,100142,1,32,32,22,F,NA,variable,homogeneous,5,absent,0.810408115386963,1,horizontal,horizontal,1,0.729407886535891,red,1,NaN,729.712474266665,845.121732464271,NaN,NaN,729.712474266665,845.121732464271,1011.40458100154,742.594190385041,1000.94274216971,443.006323791957,712.784863451954,360.378381699593,545.155339110131,608.899371659138,0,0,4,0,0,0,0,NaN,horizontal,vertical,vertical,vertical,horizontal,none
1c,15,100142,1,33,33,22,F,NA,variable,homogeneous,6,present,1.01666879653931,1,horizontal,horizontal,1,0.682350473250112,green,5,1,653.738008730483,391.116228706307,692.232343256122,831.108485694346,692.232343256122,831.108485694346,946.261991269517,808.883771293693,1054.0296480134,577.775285599347,907.767656743878,368.891514305654,653.738008730483,391.116228706307,545.970351986605,622.224714400653,0,0,0,0,4,0,vertical,horizontal,vertical,vertical,horizontal,horizontal
1c,15,100142,1,34,34,22,F,NA,variable,homogeneous,6,absent,0.945682048797607,1,vertical,vertical,1,0.823522713107447,red,4,NaN,874.554784704298,356.142287229426,NaN,NaN,725.445215295702,843.857712770574,973.909581815937,786.495193912888,1048.46436652023,542.637481142314,874.554784704298,356.142287229426,626.090418184063,413.504806087112,551.535633479765,657.362518857686,0,0,0,4,0,0,horizontal,vertical,horizontal,vertical,horizontal,horizontal
1c,15,100142,1,35,35,22,F,NA,variable,homogeneous,5,present,0.820095062255859,1,horizontal,horizontal,1,0.964694952964783,red,4,5,696.282156015671,367.045908301137,546.39691668109,626.654758133252,746.982518841471,849.42763818712,1020.83647796503,727.5,989.501930496736,429.371695378491,696.282156015671,367.045908301137,546.39691668109,626.654758133252,0,0,0,0,0,4,0,NaN,horizontal,vertical,vertical,horizontal,vertical,none
1c,15,100142,1,36,36,22,F,NA,variable,homogeneous,6,present,0.577758073806763,1,horizontal,horizontal,1,0.858815773071781,red,4,1,755.719714694933,348.874022981887,844.280285305067,851.125977018113,844.280285305067,851.125977018113,1039.62161830041,687.215136548046,995.341332995339,436.089159529932,755.719714694933,348.874022981887,560.378381699593,512.784863451954,604.658667004661,763.910840470068,0,0,0,4,0,0,horizontal,horizontal,vertical,horizontal,vertical,vertical
1c,15,100142,1,37,37,22,F,NA,variable,homogeneous,3,present,0.655867099761963,1,horizontal,horizontal,1,0.917637539679004,red,3,2,661.117046071168,386.139005173917,1054.65053136242,586.654331158049,684.232422566416,827.206663668034,1054.65053136242,586.654331158049,661.117046071168,386.139005173917,0,0,0,0,0,0,0,0,4,NaN,NaN,NaN,vertical,vertical,horizontal,none,none,none
1c,15,100142,1,38,38,22,F,NA,variable,homogeneous,4,absent,0.629117012023926,1,horizontal,horizontal,1,0.999988012929117,red,3,NaN,684.232422566416,372.793336331966,NaN,NaN,915.767577433584,827.206663668034,1027.20666366803,484.232422566416,684.232422566416,372.793336331966,572.793336331966,715.767577433584,0,0,0,0,0,0,4,0,NaN,NaN,horizontal,horizontal,horizontal,vertical,none,none
1c,15,100142,1,39,39,22,F,NA,variable,homogeneous,4,absent,0.669919013977051,1,horizontal,horizontal,1,0.811758359786003,green,3,NaN,935.129412379467,383.747735480111,NaN,NaN,664.870587620533,816.252264519889,1016.25226451989,735.129412379467,935.129412379467,383.747735480111,583.747735480111,464.870587620533,0,0,0,0,0,0,4,0,NaN,NaN,vertical,vertical,horizontal,vertical,none,none
1c,15,100142,1,40,40,22,F,NA,variable,homogeneous,4,absent,0.509182929992676,1,vertical,vertical,1,0.870580126393226,red,2,NaN,1029.19248180629,488.215357568785,NaN,NaN,911.784642431215,829.192481806288,1029.19248180629,488.215357568785,688.215357568785,370.807518193712,570.807518193712,711.784642431215,0,0,0,0,0,4,0,0,NaN,NaN,vertical,vertical,vertical,horizontal,none,none
1c,15,100142,1,41,41,22,F,NA,variable,homogeneous,3,absent,0.60692310333252,1,horizontal,horizontal,1,0.776465299821669,green,2,NaN,963.910840470068,404.658667004661,NaN,NaN,887.215136548046,839.621618300407,963.910840470068,404.658667004661,548.874022981887,555.719714694933,0,0,0,0,0,0,0,4,0,NaN,NaN,NaN,horizontal,horizontal,horizontal,none,none,none
1c,15,100142,1,42,42,22,F,NA,variable,homogeneous,5,absent,0.8714919090271,1,vertical,vertical,1,0.611764353321445,green,4,NaN,712.784863451954,360.378381699593,NaN,NaN,729.712474266665,845.121732464271,1011.40458100154,742.594190385041,1000.94274216971,443.006323791957,712.784863451954,360.378381699593,545.155339110131,608.899371659138,0,0,0,0,0,4,0,NaN,vertical,vertical,horizontal,vertical,vertical,none
1c,15,100142,1,43,43,22,F,NA,variable,homogeneous,3,present,0.815108060836792,1,horizontal,horizontal,1,0.694114826571557,green,1,2,865.998856501143,846.311085703712,980.31222920257,419.68777079743,865.998856501143,846.311085703712,980.31222920257,419.68777079743,553.688914296288,534.001143498857,0,0,0,0,0,0,4,0,0,NaN,NaN,NaN,horizontal,vertical,vertical,none,none,none
1c,15,100142,1,44,44,22,F,NA,variable,homogeneous,6,absent,0.787868976593018,0,horizontal,vertical,1,0.611764353321445,red,4,NaN,817.787900804752,345.621167183745,NaN,NaN,782.212099195248,854.378832816255,1011.40458100154,742.594190385041,1029.19248180629,488.215357568785,817.787900804752,345.621167183745,588.595418998464,457.40580961496,570.807518193712,711.784642431215,0,0,0,4,0,0,vertical,horizontal,horizontal,horizontal,horizontal,vertical
1c,15,100142,1,45,45,22,F,NA,variable,homogeneous,3,absent,0.686233997344971,1,vertical,vertical,1,0.917637539679004,red,1,NaN,927.5,820.836477965032,NaN,NaN,927.5,820.836477965032,927.5,379.163522034968,545,600,0,0,0,0,0,0,4,0,0,NaN,NaN,NaN,vertical,vertical,vertical,none,none,none
1c,15,100142,1,46,46,22,F,NA,variable,homogeneous,5,absent,0.629338026046753,1,horizontal,horizontal,1,1.05880977953634,green,3,NaN,931.334709102064,381.422338320961,NaN,NaN,822.224714400653,854.029648013395,1048.46436652023,657.362518857686,931.334709102064,381.422338320961,632.704947607421,407.549057043193,565.271262369628,699.636437764765,0,0,0,0,4,0,0,NaN,horizontal,horizontal,horizontal,horizontal,horizontal,none
1c,15,100142,1,47,47,22,F,NA,variable,homogeneous,3,present,0.682677030563354,1,horizontal,horizontal,1,1.02351671957201,red,3,1,570.807518193712,711.784642431215,1011.40458100154,742.594190385041,1011.40458100154,742.594190385041,817.787900804752,345.621167183745,570.807518193712,711.784642431215,0,0,0,0,0,0,0,0,4,NaN,NaN,NaN,vertical,vertical,horizontal,none,none,none
1c,15,100142,1,48,48,22,F,NA,variable,homogeneous,3,absent,0.732433795928955,1,horizontal,horizontal,1,0.6,red,1,NaN,1003.65205506206,753.462830903772,NaN,NaN,1003.65205506206,753.462830903772,831.076682568313,346.900731331463,565.271262369628,699.636437764765,0,0,0,0,0,0,4,0,0,NaN,NaN,NaN,horizontal,horizontal,horizontal,none,none,none
1c,15,100142,1,49,49,22,F,NA,variable,homogeneous,6,present,0.779833078384399,1,vertical,vertical,1,0.635293059964334,green,5,1,574.848363820974,480.284751489598,808.899371659138,854.844660889869,808.899371659138,854.844660889869,1025.15163617903,719.715248510402,1016.25226451989,464.870587620533,791.100628340862,345.155339110131,574.848363820974,480.284751489598,583.747735480111,735.129412379467,0,0,0,0,4,0,horizontal,vertical,horizontal,vertical,vertical,vertical
1c,15,100142,1,50,50,22,F,NA,variable,homogeneous,4,present,0.711751937866211,1,vertical,vertical,1,0.799994006464558,red,2,1,995.341332995339,763.910840470068,636.089159529932,795.341332995339,636.089159529932,795.341332995339,995.341332995339,763.910840470068,963.910840470068,404.658667004661,604.658667004661,436.089159529932,0,0,0,0,0,4,0,0,NaN,NaN,horizontal,vertical,horizontal,vertical,none,none
1c,15,100142,1,51,51,22,F,NA,variable,homogeneous,5,absent,0.595943927764893,1,horizontal,horizontal,1,1.09410283950067,green,2,NaN,1036.43188291453,695.524681321058,NaN,NaN,782.212099195248,854.378832816255,1036.43188291453,695.524681321058,963.910840470068,404.658667004661,664.870587620533,383.747735480111,552.574589799621,661.690083377915,0,0,0,4,0,0,0,NaN,vertical,horizontal,vertical,vertical,vertical,none
1c,15,100142,1,52,52,22,F,NA,variable,homogeneous,6,present,0.758567094802856,0,vertical,horizontal,1,0.917637539679004,green,6,1,636.089159529932,795.341332995339,887.215136548046,839.621618300407,887.215136548046,839.621618300407,1051.12597701811,644.280285305067,963.910840470068,404.658667004661,712.784863451954,360.378381699593,548.874022981887,555.719714694933,636.089159529932,795.341332995339,0,0,0,0,0,4,vertical,vertical,vertical,horizontal,horizontal,vertical
1c,15,100142,1,53,53,22,F,NA,variable,homogeneous,4,present,0.843819141387939,1,horizontal,horizontal,1,0.717643533214446,green,1,2,676.373546837184,823.028025320546,1023.02802532055,723.626453162816,676.373546837184,823.028025320546,1023.02802532055,723.626453162816,923.626453162816,376.971974679454,576.971974679454,476.373546837184,0,0,0,0,4,0,0,0,NaN,NaN,horizontal,horizontal,horizontal,horizontal,none,none
1c,15,100142,1,54,54,22,F,NA,variable,homogeneous,5,present,1.05253100395203,1,horizontal,horizontal,1,0.976459306286227,green,2,5,998.172220171528,760.476699717708,545.349468637584,586.654331158049,708.616172865948,838.063008756786,998.172220171528,760.476699717708,1013.86099482608,461.117046071168,734.001143498857,353.688914296288,545.349468637584,586.654331158049,0,0,0,4,0,0,0,NaN,horizontal,horizontal,horizontal,horizontal,horizontal,none
1c,15,100142,1,55,55,22,F,NA,variable,homogeneous,4,absent,0.966280937194824,1,horizontal,horizontal,1,0.835287066428892,green,3,NaN,899.636437764765,365.271262369628,NaN,NaN,700.363562235235,834.728737630372,1034.72873763037,699.636437764765,899.636437764765,365.271262369628,565.271262369628,500.363562235235,0,0,0,0,0,0,4,0,NaN,NaN,horizontal,vertical,horizontal,horizontal,none,none
1c,15,100142,1,56,56,22,F,NA,variable,homogeneous,3,present,0.893955945968628,1,vertical,vertical,1,0.999988012929117,red,1,3,826.654758133252,853.60308331891,567.045908301137,496.282156015671,826.654758133252,853.60308331891,1006.29933356561,450.114760665419,567.045908301137,496.282156015671,0,0,0,0,0,0,4,0,0,NaN,NaN,NaN,vertical,vertical,vertical,none,none,none
1c,15,100142,1,57,57,22,F,NA,variable,homogeneous,5,absent,1.19049382209778,1,vertical,vertical,1,0.717643533214446,green,2,NaN,1047.42541020038,661.690083377915,NaN,NaN,817.787900804752,854.378832816255,1047.42541020038,661.690083377915,935.129412379467,383.747735480111,636.089159529932,404.658667004661,563.568117085469,695.524681321058,0,0,0,4,0,0,0,NaN,horizontal,vertical,vertical,vertical,vertical,none
1c,15,100142,1,58,58,22,F,NA,variable,homogeneous,3,absent,0.661007165908813,1,horizontal,horizontal,1,0.929401893000449,red,2,NaN,1054.0296480134,622.224714400653,NaN,NaN,653.738008730483,808.883771293693,1054.0296480134,622.224714400653,692.232343256122,368.891514305654,0,0,0,0,0,0,0,4,0,NaN,NaN,NaN,vertical,horizontal,horizontal,none,none,none
1c,15,100142,1,59,59,22,F,NA,variable,homogeneous,3,present,0.872205018997192,0,vertical,horizontal,1,0.894108833036115,green,2,1,800,345,1020.83647796503,727.5,1020.83647796503,727.5,800,345,579.163522034968,727.5,0,0,0,0,0,0,0,4,0,NaN,NaN,NaN,vertical,vertical,vertical,none,none,none
1c,15,100142,1,60,60,22,F,NA,variable,homogeneous,6,present,0.842318058013916,0,vertical,horizontal,1,0.811758359786003,red,1,2,721.200666434388,842.519411655264,970.628304621509,789.501930496736,721.200666434388,842.519411655264,970.628304621509,789.501930496736,1049.42763818712,546.982518841471,878.799333565612,357.480588344736,629.371695378491,410.498069503264,550.57236181288,653.017481158529,4,0,0,0,0,0,vertical,horizontal,horizontal,horizontal,vertical,vertical
1c,15,100142,1,61,61,22,F,NA,variable,homogeneous,4,present,1.15683007240295,0,vertical,horizontal,1,0.870580126393226,red,4,1,548.874022981887,644.280285305067,844.280285305067,851.125977018113,844.280285305067,851.125977018113,1051.12597701811,555.719714694933,755.719714694933,348.874022981887,548.874022981887,644.280285305067,0,0,0,0,0,0,0,4,NaN,NaN,horizontal,vertical,vertical,vertical,none,none
1c,15,100142,1,62,62,22,F,NA,variable,homogeneous,5,absent,0.799937009811401,1,horizontal,horizontal,1,0.999988012929117,red,3,NaN,835.489140744817,347.4816424709,NaN,NaN,919.715248510402,825.151636179026,1051.12597701811,555.719714694933,835.489140744817,347.4816424709,570.807518193712,488.215357568785,622.862115532956,783.431649086356,0,0,0,0,4,0,0,NaN,vertical,horizontal,horizontal,vertical,horizontal,none
1c,15,100142,1,63,63,22,F,NA,variable,homogeneous,5,present,0.735169172286987,1,horizontal,horizontal,1,0.741172239857335,red,1,4,844.280285305067,851.125977018113,616.568350913644,422.862115532956,844.280285305067,851.125977018113,1052.5183575291,635.489140744817,911.784642431215,370.807518193712,616.568350913644,422.862115532956,574.848363820974,719.715248510402,0,0,4,0,0,0,0,NaN,horizontal,horizontal,horizontal,vertical,horizontal,none
1c,15,100142,1,64,64,22,F,NA,variable,homogeneous,4,present,0.643317937850952,1,horizontal,horizontal,1,0.870580126393226,red,4,1,546.39691668109,626.654758133252,826.654758133252,853.60308331891,826.654758133252,853.60308331891,1053.60308331891,573.345241866748,773.345241866748,346.39691668109,546.39691668109,626.654758133252,0,0,0,0,0,0,0,4,NaN,NaN,vertical,vertical,vertical,horizontal,none,none
1c,15,100142,2,1,65,22,F,NA,variable,homogeneous,3,present,1.25090384483337,1,horizontal,horizontal,1,1.09410283950067,green,2,3,1049.42763818712,653.017481158529,721.200666434388,357.480588344736,629.371695378491,789.501930496736,1049.42763818712,653.017481158529,721.200666434388,357.480588344736,0,0,0,0,0,0,0,4,0,NaN,NaN,NaN,horizontal,horizontal,horizontal,none,none,none
1c,15,100142,2,2,66,22,F,NA,variable,homogeneous,4,absent,0.702433109283447,1,vertical,vertical,1,0.90587318635756,red,1,NaN,800,855,NaN,NaN,800,855,1055,600,800,345,545,600,0,0,0,0,4,0,0,0,NaN,NaN,vertical,horizontal,horizontal,vertical,none,none
1c,15,100142,2,3,67,22,F,NA,variable,homogeneous,5,absent,0.885951995849609,1,horizontal,horizontal,1,0.870580126393226,green,3,NaN,989.501930496736,429.371695378491,NaN,NaN,746.982518841471,849.42763818712,1020.83647796503,727.5,989.501930496736,429.371695378491,696.282156015671,367.045908301137,546.39691668109,626.654758133252,0,0,0,0,4,0,0,NaN,vertical,horizontal,horizontal,horizontal,horizontal,none
1c,15,100142,2,4,68,22,F,NA,variable,homogeneous,4,absent,1.31365299224854,1,horizontal,horizontal,1,1.09410283950067,red,4,NaN,613.504806087112,426.090418184063,NaN,NaN,626.090418184063,786.495193912888,986.495193912888,773.909581815937,973.909581815937,413.504806087112,613.504806087112,426.090418184063,0,0,0,0,0,0,0,4,NaN,NaN,vertical,vertical,horizontal,horizontal,none,none
1c,15,100142,2,5,69,22,F,NA,variable,homogeneous,6,present,0.861909151077271,1,horizontal,horizontal,1,0.894108833036115,red,2,6,949.885239334581,806.299333565612,546.39691668109,626.654758133252,696.282156015671,832.954091698863,949.885239334581,806.299333565612,1053.60308331891,573.345241866748,903.717843984329,367.045908301137,650.114760665419,393.700666434388,546.39691668109,626.654758133252,0,4,0,0,0,0,horizontal,horizontal,horizontal,horizontal,horizontal,vertical
1c,15,100142,2,6,70,22,F,NA,variable,homogeneous,3,absent,0.672882080078125,1,horizontal,horizontal,1,0.870580126393226,green,3,NaN,607.549057043193,432.704947607421,NaN,NaN,751.343706178981,850.314931779154,1041.10723677783,516.980120613425,607.549057043193,432.704947607421,0,0,0,0,0,0,0,0,4,NaN,NaN,NaN,vertical,horizontal,horizontal,none,none,none
1c,15,100142,2,7,71,22,F,NA,variable,homogeneous,4,present,0.716139793395996,1,horizontal,horizontal,1,0.682350473250112,green,1,2,626.090418184063,786.495193912888,986.495193912888,773.909581815937,626.090418184063,786.495193912888,986.495193912888,773.909581815937,973.909581815937,413.504806087112,613.504806087112,426.090418184063,0,0,0,0,4,0,0,0,NaN,NaN,horizontal,horizontal,vertical,vertical,none,none
1c,15,100142,2,8,72,22,F,NA,variable,homogeneous,6,absent,0.720917940139771,1,vertical,vertical,1,0.705879179893001,red,3,NaN,949.885239334581,393.700666434388,NaN,NaN,903.717843984329,832.954091698863,1053.60308331891,626.654758133252,949.885239334581,393.700666434388,696.282156015671,367.045908301137,546.39691668109,573.345241866748,650.114760665419,806.299333565612,0,0,4,0,0,0,vertical,horizontal,vertical,horizontal,horizontal,horizontal
1c,15,100142,2,9,73,22,F,NA,variable,homogeneous,3,present,0.685019016265869,1,vertical,vertical,1,0.682350473250112,red,2,3,1046.31108570371,534.001143498857,619.68777079743,419.68777079743,734.001143498857,846.311085703712,1046.31108570371,534.001143498857,619.68777079743,419.68777079743,0,0,0,0,0,0,0,4,0,NaN,NaN,NaN,horizontal,vertical,vertical,none,none,none
1c,15,100142,2,10,74,22,F,NA,variable,homogeneous,6,present,0.732590913772583,1,vertical,vertical,1,1.08233848617923,red,3,6,1003.65205506206,446.537169096228,596.34794493794,753.462830903772,831.076682568313,853.099268668537,1034.72873763037,699.636437764765,1003.65205506206,446.537169096228,768.923317431687,346.900731331463,565.271262369628,500.363562235235,596.34794493794,753.462830903772,0,0,4,0,0,0,horizontal,vertical,vertical,horizontal,vertical,vertical
1c,15,100142,2,11,75,22,F,NA,variable,homogeneous,6,present,0.653913021087646,1,horizontal,horizontal,1,0.729407886535891,green,5,4,579.163522034968,472.5,800,345,800,855,1020.83647796503,727.5,1020.83647796503,472.5,800,345,579.163522034968,472.5,579.163522034968,727.5,0,0,0,0,4,0,horizontal,horizontal,vertical,horizontal,horizontal,vertical
1c,15,100142,2,12,76,22,F,NA,variable,homogeneous,3,absent,0.691887140274048,0,vertical,horizontal,1,0.823522713107447,green,1,NaN,960.476699717708,798.172220171528,NaN,NaN,960.476699717708,798.172220171528,891.383827134052,361.936991243214,548.13947314824,639.890788585259,0,0,0,0,0,0,4,0,0,NaN,NaN,NaN,vertical,horizontal,horizontal,none,none,none
1c,15,100142,2,13,77,22,F,NA,variable,homogeneous,5,absent,1.38269090652466,1,horizontal,horizontal,1,0.647057413285778,red,1,NaN,795.549636358493,854.96116226488,NaN,NaN,795.549636358493,854.96116226488,1041.10723677783,683.019879386575,953.462830903772,396.34794493794,653.738008730483,391.116228706307,556.142287229426,674.554784704298,0,0,4,0,0,0,0,NaN,horizontal,vertical,vertical,vertical,horizontal,none
1c,15,100142,2,14,78,22,F,NA,variable,homogeneous,3,present,1.10498595237732,1,horizontal,horizontal,1,0.729407886535891,red,1,2,915.767577433584,827.206663668034,938.882953928832,386.139005173917,915.767577433584,827.206663668034,938.882953928832,386.139005173917,545.349468637584,586.654331158049,0,0,0,0,0,0,4,0,0,NaN,NaN,NaN,horizontal,horizontal,vertical,none,none,none
1c,15,100142,2,15,79,22,F,NA,variable,homogeneous,5,present,0.718378067016602,1,vertical,vertical,1,0.741172239857335,red,2,1,1042.51941165526,678.799333565612,800,855,800,855,1042.51941165526,678.799333565612,949.885239334581,393.700666434388,650.114760665419,393.700666434388,557.480588344736,678.799333565612,0,0,0,4,0,0,0,NaN,vertical,vertical,vertical,vertical,horizontal,none
1c,15,100142,2,16,80,22,F,NA,variable,homogeneous,6,absent,0.779505014419556,1,horizontal,horizontal,1,0.729407886535891,red,3,NaN,938.882953928832,386.139005173917,NaN,NaN,915.767577433584,827.206663668034,1054.65053136242,613.345668841951,938.882953928832,386.139005173917,684.232422566416,372.793336331966,545.349468637584,586.654331158049,661.117046071168,813.860994826083,0,0,4,0,0,0,horizontal,vertical,horizontal,vertical,vertical,vertical
1c,15,100142,2,17,81,22,F,NA,variable,homogeneous,3,absent,0.644288063049316,0,vertical,horizontal,1,0.658821766607223,red,3,NaN,557.480588344736,678.799333565612,NaN,NaN,989.501930496736,770.628304621509,853.017481158529,350.57236181288,557.480588344736,678.799333565612,0,0,0,0,0,0,0,0,4,NaN,NaN,NaN,horizontal,vertical,vertical,none,none,none
1c,15,100142,2,18,82,22,F,NA,variable,homogeneous,4,present,0.653389930725098,1,horizontal,horizontal,1,0.799994006464558,green,4,2,545.155339110131,608.899371659138,1054.84466088987,591.100628340862,808.899371659138,854.844660889869,1054.84466088987,591.100628340862,791.100628340862,345.155339110131,545.155339110131,608.899371659138,0,0,0,0,0,0,0,4,NaN,NaN,horizontal,vertical,vertical,horizontal,none,none
1c,15,100142,2,19,83,22,F,NA,variable,homogeneous,3,present,0.666105031967163,1,vertical,vertical,1,0.976459306286227,red,1,2,977.137884467044,783.431649086356,870.287525733335,354.878267535729,977.137884467044,783.431649086356,870.287525733335,354.878267535729,552.574589799621,661.690083377915,0,0,0,0,0,0,4,0,0,NaN,NaN,NaN,vertical,vertical,vertical,none,none,none
1c,15,100142,2,20,84,22,F,NA,variable,homogeneous,3,absent,0.680274963378906,1,horizontal,horizontal,1,0.835287066428892,red,3,NaN,604.658667004661,436.089159529932,NaN,NaN,755.719714694933,851.125977018113,1039.62161830041,512.784863451954,604.658667004661,436.089159529932,0,0,0,0,0,0,0,0,4,NaN,NaN,NaN,horizontal,vertical,horizontal,none,none,none
1c,15,100142,2,21,85,22,F,NA,variable,homogeneous,4,absent,0.756572008132935,1,horizontal,horizontal,1,0.729407886535891,red,3,NaN,817.787900804752,345.621167183745,NaN,NaN,782.212099195248,854.378832816255,1054.37883281626,617.787900804752,817.787900804752,345.621167183745,545.621167183745,582.212099195248,0,0,0,0,0,0,4,0,NaN,NaN,horizontal,horizontal,horizontal,horizontal,none,none
1c,15,100142,2,22,86,22,F,NA,variable,homogeneous,5,absent,0.561624050140381,1,vertical,vertical,1,1.09410283950067,green,4,NaN,742.637481142314,351.535633479765,NaN,NaN,700.363562235235,834.728737630372,992.450942956807,767.295052392579,1018.57766167904,468.665290897936,742.637481142314,351.535633479765,545.970351986605,577.775285599347,0,0,0,0,0,4,0,NaN,vertical,vertical,horizontal,vertical,vertical,none
1c,15,100142,2,23,87,22,F,NA,variable,homogeneous,4,absent,0.652609825134277,1,vertical,vertical,1,0.976459306286227,red,4,NaN,549.685068220846,648.656293821019,NaN,NaN,848.656293821019,850.314931779154,1050.31493177915,551.343706178981,751.343706178981,349.685068220846,549.685068220846,648.656293821019,0,0,0,0,0,0,0,4,NaN,NaN,vertical,horizontal,horizontal,vertical,none,none
1c,15,100142,2,24,88,22,F,NA,variable,homogeneous,5,absent,0.863385915756226,1,vertical,vertical,1,0.682350473250112,green,3,NaN,919.715248510402,374.848363820974,NaN,NaN,835.489140744817,852.518357529101,1051.12597701811,644.280285305067,919.715248510402,374.848363820974,622.862115532956,416.568350913644,570.807518193712,711.784642431215,0,0,0,0,4,0,0,NaN,horizontal,vertical,vertical,vertical,vertical,none
1c,15,100142,2,25,89,22,F,NA,variable,homogeneous,5,present,0.760324001312256,1,vertical,vertical,1,0.976459306286227,green,4,3,629.371695378491,410.498069503264,927.5,379.163522034968,826.654758133252,853.60308331891,1049.42763818712,653.017481158529,927.5,379.163522034968,629.371695378491,410.498069503264,567.045908301137,703.717843984329,0,0,0,0,0,4,0,NaN,vertical,horizontal,horizontal,vertical,vertical,none
1c,15,100142,2,26,90,22,F,NA,variable,homogeneous,5,absent,1.27968192100525,1,horizontal,horizontal,1,0.988223659607672,green,1,NaN,853.017481158529,849.42763818712,NaN,NaN,853.017481158529,849.42763818712,1053.60308331891,626.654758133252,903.717843984329,367.045908301137,610.498069503264,429.371695378491,579.163522034968,727.5,0,0,4,0,0,0,0,NaN,horizontal,vertical,horizontal,horizontal,vertical,none
1c,15,100142,2,27,91,22,F,NA,variable,homogeneous,4,present,1.06208801269531,1,horizontal,horizontal,1,1.04704542621489,red,4,2,545.349468637584,586.654331158049,1054.65053136242,613.345668841951,786.654331158049,854.650531362416,1054.65053136242,613.345668841951,813.345668841951,345.349468637584,545.349468637584,586.654331158049,0,0,0,0,0,0,0,4,NaN,NaN,vertical,vertical,horizontal,horizontal,none,none
1c,15,100142,2,28,92,22,F,NA,variable,homogeneous,4,absent,0.761782169342041,1,vertical,vertical,1,0.717643533214446,green,4,NaN,545.03883773512,595.549636358493,NaN,NaN,795.549636358493,854.96116226488,1054.96116226488,604.450363641507,804.450363641507,345.03883773512,545.03883773512,595.549636358493,0,0,0,0,0,0,0,4,NaN,NaN,vertical,horizontal,vertical,vertical,none,none
1c,15,100142,2,29,93,22,F,NA,variable,homogeneous,5,present,1.73133087158203,1,horizontal,horizontal,1,0.90587318635756,red,1,4,870.287525733335,845.121732464271,599.057257830286,443.006323791957,870.287525733335,845.121732464271,1054.84466088987,608.899371659138,887.215136548046,360.378381699593,599.057257830286,443.006323791957,588.595418998464,742.594190385041,0,0,4,0,0,0,0,NaN,horizontal,vertical,vertical,vertical,vertical,none
1c,15,100142,2,30,94,22,F,NA,variable,homogeneous,4,absent,0.727463006973267,1,horizontal,horizontal,1,0.670586119928668,green,3,NaN,956.993676208043,399.057257830286,NaN,NaN,643.006323791957,800.942742169714,1000.94274216971,756.993676208043,956.993676208043,399.057257830286,599.057257830286,443.006323791957,0,0,0,0,0,0,4,0,NaN,NaN,vertical,horizontal,horizontal,vertical,none,none
1c,15,100142,2,31,95,22,F,NA,variable,homogeneous,6,absent,0.66192889213562,1,horizontal,horizontal,1,0.776465299821669,green,5,NaN,548.874022981887,555.719714694933,NaN,NaN,887.215136548046,839.621618300407,1051.12597701811,644.280285305067,963.910840470068,404.658667004661,712.784863451954,360.378381699593,548.874022981887,555.719714694933,636.089159529932,795.341332995339,0,0,0,0,4,0,horizontal,horizontal,vertical,vertical,horizontal,vertical
1c,15,100142,2,32,96,22,F,NA,variable,homogeneous,4,present,0.674516916275024,1,vertical,vertical,1,0.964694952964783,green,3,4,650.114760665419,393.700666434388,593.700666434388,749.885239334581,949.885239334581,806.299333565612,1006.29933356561,450.114760665419,650.114760665419,393.700666434388,593.700666434388,749.885239334581,0,0,0,0,0,0,4,0,NaN,NaN,horizontal,vertical,vertical,horizontal,none,none
1c,15,100142,2,33,97,22,F,NA,variable,homogeneous,5,absent,0.694623947143555,1,vertical,vertical,1,0.929401893000449,red,2,NaN,1050.31493177915,648.656293821019,NaN,NaN,831.076682568313,853.099268668537,1050.31493177915,648.656293821019,923.626453162816,376.971974679454,626.090418184063,413.504806087112,568.891514305654,707.767656743878,0,0,0,4,0,0,0,NaN,horizontal,vertical,vertical,vertical,horizontal,none
1c,15,100142,2,34,98,22,F,NA,variable,homogeneous,3,present,0.745292901992798,1,vertical,vertical,1,1.03528107289345,green,3,2,738.309916622085,352.574589799621,1045.12173246427,670.287525733335,616.568350913644,777.137884467044,1045.12173246427,670.287525733335,738.309916622085,352.574589799621,0,0,0,0,0,0,0,0,4,NaN,NaN,NaN,vertical,horizontal,vertical,none,none,none
1c,15,100142,2,35,99,22,F,NA,variable,homogeneous,5,present,0.727880001068115,1,vertical,vertical,1,0.75293659317878,green,3,4,1041.10723677783,516.980120613425,795.549636358493,345.03883773512,653.738008730483,808.883771293693,953.462830903772,803.65205506206,1041.10723677783,516.980120613425,795.549636358493,345.03883773512,556.142287229426,525.445215295702,0,0,0,0,4,0,0,NaN,horizontal,horizontal,vertical,vertical,horizontal,none
1c,15,100142,2,36,100,22,F,NA,variable,homogeneous,3,present,0.697651147842407,1,horizontal,horizontal,1,0.952930599643338,green,3,2,712.784863451954,360.378381699593,1051.12597701811,644.280285305067,636.089159529932,795.341332995339,1051.12597701811,644.280285305067,712.784863451954,360.378381699593,0,0,0,0,0,0,0,0,4,NaN,NaN,NaN,vertical,vertical,horizontal,none,none,none
1c,15,100142,2,37,101,22,F,NA,variable,homogeneous,3,absent,0.802671909332275,0,vertical,horizontal,1,0.741172239857335,red,1,NaN,692.232343256122,831.108485694346,NaN,NaN,692.232343256122,831.108485694346,1054.0296480134,577.775285599347,653.738008730483,391.116228706307,0,0,0,0,0,0,4,0,0,NaN,NaN,NaN,vertical,vertical,vertical,none,none,none
1c,15,100142,2,38,102,22,F,NA,variable,homogeneous,6,present,0.698703050613403,0,vertical,horizontal,1,0.988223659607672,green,5,2,626.090418184063,413.504806087112,973.909581815937,786.495193912888,725.445215295702,843.857712770574,973.909581815937,786.495193912888,1048.46436652023,542.637481142314,874.554784704298,356.142287229426,626.090418184063,413.504806087112,551.535633479765,657.362518857686,0,0,0,0,4,0,horizontal,vertical,vertical,vertical,vertical,vertical
1c,15,100142,2,39,103,22,F,NA,variable,homogeneous,6,present,0.750502824783325,1,vertical,vertical,1,0.682350473250112,green,4,6,857.362518857686,351.535633479765,556.142287229426,674.554784704298,742.637481142314,848.464366520235,986.495193912888,773.909581815937,1043.85771277057,525.445215295702,857.362518857686,351.535633479765,613.504806087112,426.090418184063,556.142287229426,674.554784704298,0,0,0,4,0,0,vertical,vertical,vertical,vertical,horizontal,vertical
1c,15,100142,2,40,104,22,F,NA,variable,homogeneous,4,absent,0.534921884536743,1,vertical,vertical,1,0.870580126393226,green,2,NaN,1045.12173246427,670.287525733335,NaN,NaN,729.712474266665,845.121732464271,1045.12173246427,670.287525733335,870.287525733335,354.878267535729,554.878267535729,529.712474266665,0,0,0,0,0,4,0,0,NaN,NaN,horizontal,vertical,vertical,horizontal,none,none
1c,15,100142,2,41,105,22,F,NA,variable,homogeneous,4,present,0.717055082321167,1,horizontal,horizontal,1,0.764700946500224,red,3,1,883.019879386575,358.892763222174,716.980120613425,841.107236777826,716.980120613425,841.107236777826,1041.10723677783,683.019879386575,883.019879386575,358.892763222174,558.892763222174,516.980120613425,0,0,0,0,0,0,4,0,NaN,NaN,vertical,horizontal,horizontal,horizontal,none,none
1c,15,100142,2,42,106,22,F,NA,variable,homogeneous,5,present,0.781995058059692,1,horizontal,horizontal,1,0.917637539679004,green,4,3,712.784863451954,360.378381699593,1000.94274216971,443.006323791957,729.712474266665,845.121732464271,1011.40458100154,742.594190385041,1000.94274216971,443.006323791957,712.784863451954,360.378381699593,545.155339110131,608.899371659138,0,0,0,0,0,4,0,NaN,vertical,vertical,vertical,horizontal,vertical,none
1c,15,100142,2,43,107,22,F,NA,variable,homogeneous,4,present,0.773805856704712,1,vertical,vertical,1,1.01175236625056,green,2,3,1020.83647796503,727.5,927.5,379.163522034968,672.5,820.836477965032,1020.83647796503,727.5,927.5,379.163522034968,579.163522034968,472.5,0,0,0,0,0,4,0,0,NaN,NaN,vertical,vertical,vertical,vertical,none,none
1c,15,100142,2,44,108,22,F,NA,variable,homogeneous,3,absent,0.833997011184692,1,horizontal,horizontal,1,0.811758359786003,red,1,NaN,746.982518841471,849.42763818712,NaN,NaN,746.982518841471,849.42763818712,1042.51941165526,521.200666434388,610.498069503264,429.371695378491,0,0,0,0,0,0,4,0,0,NaN,NaN,NaN,horizontal,horizontal,horizontal,none,none,none
1c,15,100142,2,45,109,22,F,NA,variable,homogeneous,3,present,0.77081298828125,1,horizontal,horizontal,1,0.799994006464558,red,2,3,907.767656743878,368.891514305654,545.970351986605,622.224714400653,946.261991269517,808.883771293693,907.767656743878,368.891514305654,545.970351986605,622.224714400653,0,0,0,0,0,0,0,4,0,NaN,NaN,NaN,vertical,horizontal,horizontal,none,none,none
1c,15,100142,2,46,110,22,F,NA,variable,homogeneous,6,absent,0.782522916793823,1,vertical,vertical,1,0.811758359786003,green,6,NaN,581.422338320961,731.334709102064,NaN,NaN,804.450363641507,854.96116226488,1023.02802532055,723.626453162816,1018.57766167904,468.665290897936,795.549636358493,345.03883773512,576.971974679454,476.373546837184,581.422338320961,731.334709102064,0,0,0,0,0,4,vertical,vertical,horizontal,vertical,horizontal,vertical
1c,15,100142,2,47,111,22,F,NA,variable,homogeneous,6,absent,0.756383180618286,1,horizontal,horizontal,1,1.09410283950067,red,5,NaN,550.57236181288,546.982518841471,NaN,NaN,878.799333565612,842.519411655264,1049.42763818712,653.017481158529,970.628304621509,410.498069503264,721.200666434388,357.480588344736,550.57236181288,546.982518841471,629.371695378491,789.501930496736,0,0,0,0,4,0,vertical,vertical,horizontal,horizontal,horizontal,horizontal
1c,15,100142,2,48,112,22,F,NA,variable,homogeneous,6,present,0.776163101196289,1,vertical,vertical,1,0.623528706642889,red,2,6,992.450942956807,767.295052392579,558.892763222174,683.019879386575,751.343706178981,850.314931779154,992.450942956807,767.295052392579,1041.10723677783,516.980120613425,848.656293821019,349.685068220846,607.549057043193,432.704947607421,558.892763222174,683.019879386575,0,4,0,0,0,0,vertical,vertical,horizontal,vertical,horizontal,horizontal
1c,15,100142,2,49,113,22,F,NA,variable,homogeneous,6,present,0.914489030838013,1,horizontal,horizontal,1,0.929401893000449,red,4,5,848.656293821019,349.685068220846,607.549057043193,432.704947607421,751.343706178981,850.314931779154,992.450942956807,767.295052392579,1041.10723677783,516.980120613425,848.656293821019,349.685068220846,607.549057043193,432.704947607421,558.892763222174,683.019879386575,0,0,0,4,0,0,horizontal,horizontal,horizontal,horizontal,vertical,vertical
1c,15,100142,2,50,114,22,F,NA,variable,homogeneous,4,absent,0.732446908950806,1,horizontal,horizontal,1,0.976459306286227,green,3,NaN,704.475318678942,363.568117085469,NaN,NaN,895.524681321058,836.431882914531,1036.43188291453,504.475318678942,704.475318678942,363.568117085469,563.568117085469,695.524681321058,0,0,0,0,0,0,4,0,NaN,NaN,vertical,vertical,horizontal,horizontal,none,none
1c,15,100142,2,51,115,22,F,NA,variable,homogeneous,6,present,0.675076007843018,1,horizontal,horizontal,1,0.788229653143114,green,5,2,561.936991243214,508.616172865948,1038.06300875679,691.383827134052,839.890788585259,851.86052685176,1038.06300875679,691.383827134052,998.172220171528,439.523300282291,760.109211414741,348.13947314824,561.936991243214,508.616172865948,601.827779828472,760.476699717708,0,0,0,0,4,0,horizontal,vertical,vertical,horizontal,horizontal,vertical
1c,15,100142,2,52,116,22,F,NA,variable,homogeneous,5,present,0.825498819351196,1,horizontal,horizontal,1,0.847051419750337,green,2,4,1016.25226451989,735.129412379467,704.475318678942,363.568117085469,738.309916622085,847.425410200379,1016.25226451989,735.129412379467,995.341332995339,436.089159529932,704.475318678942,363.568117085469,545.621167183745,617.787900804752,0,0,0,4,0,0,0,NaN,vertical,horizontal,horizontal,horizontal,vertical,none
1c,15,100142,2,53,117,22,F,NA,variable,homogeneous,6,absent,0.73094916343689,1,vertical,vertical,1,0.635293059964334,green,2,NaN,1041.10723677783,683.019879386575,NaN,NaN,848.656293821019,850.314931779154,1041.10723677783,683.019879386575,992.450942956807,432.704947607421,751.343706178981,349.685068220846,558.892763222174,516.980120613425,607.549057043193,767.295052392579,0,4,0,0,0,0,horizontal,vertical,vertical,vertical,horizontal,horizontal
1c,15,100142,2,54,118,22,F,NA,variable,homogeneous,4,present,1.08543300628662,1,vertical,vertical,1,0.776465299821669,red,2,4,1038.06300875679,508.616172865948,561.936991243214,691.383827134052,891.383827134052,838.063008756786,1038.06300875679,508.616172865948,708.616172865948,361.936991243214,561.936991243214,691.383827134052,0,0,0,0,0,4,0,0,NaN,NaN,vertical,vertical,vertical,horizontal,none,none
1c,15,100142,2,55,119,22,F,NA,variable,homogeneous,5,absent,0.603026151657104,1,horizontal,horizontal,1,0.988223659607672,red,5,NaN,545.155339110131,608.899371659138,NaN,NaN,729.712474266665,845.121732464271,1011.40458100154,742.594190385041,1000.94274216971,443.006323791957,712.784863451954,360.378381699593,545.155339110131,608.899371659138,0,0,0,0,0,0,4,NaN,horizontal,vertical,vertical,horizontal,horizontal,none
1c,15,100142,2,56,120,22,F,NA,variable,homogeneous,4,present,0.65572190284729,1,vertical,vertical,1,0.823522713107447,red,1,2,956.993676208043,800.942742169714,1000.94274216971,443.006323791957,956.993676208043,800.942742169714,1000.94274216971,443.006323791957,643.006323791957,399.057257830286,599.057257830286,756.993676208043,0,0,0,0,4,0,0,0,NaN,NaN,vertical,vertical,horizontal,horizontal,none,none
1c,15,100142,2,57,121,22,F,NA,variable,homogeneous,3,absent,0.743860006332397,1,vertical,vertical,1,0.741172239857335,green,3,NaN,619.68777079743,419.68777079743,NaN,NaN,734.001143498857,846.311085703712,1046.31108570371,534.001143498857,619.68777079743,419.68777079743,0,0,0,0,0,0,0,0,4,NaN,NaN,NaN,vertical,horizontal,vertical,none,none,none
1c,15,100142,2,58,122,22,F,NA,variable,homogeneous,5,absent,0.574525117874146,1,vertical,vertical,1,0.776465299821669,red,4,NaN,664.870587620533,383.747735480111,NaN,NaN,782.212099195248,854.378832816255,1036.43188291453,695.524681321058,963.910840470068,404.658667004661,664.870587620533,383.747735480111,552.574589799621,661.690083377915,0,0,0,0,0,4,0,NaN,horizontal,horizontal,horizontal,vertical,vertical,none
1c,15,100142,2,59,123,22,F,NA,variable,homogeneous,5,present,0.541102886199951,1,vertical,vertical,1,0.75293659317878,red,3,1,817.787900804752,345.621167183745,935.129412379467,816.252264519889,935.129412379467,816.252264519889,1047.42541020038,538.309916622085,817.787900804752,345.621167183745,563.568117085469,504.475318678942,636.089159529932,795.341332995339,0,0,0,0,4,0,0,NaN,vertical,horizontal,vertical,horizontal,vertical,none
1c,15,100142,2,60,124,22,F,NA,variable,homogeneous,5,present,0.881409883499146,1,horizontal,horizontal,1,0.658821766607223,red,4,1,622.862115532956,416.568350913644,835.489140744817,852.518357529101,835.489140744817,852.518357529101,1051.12597701811,644.280285305067,919.715248510402,374.848363820974,622.862115532956,416.568350913644,570.807518193712,711.784642431215,0,0,0,0,0,4,0,NaN,vertical,vertical,horizontal,horizontal,horizontal,none
1c,15,100142,2,61,125,22,F,NA,variable,homogeneous,3,present,1.12338089942932,1,vertical,vertical,1,0.799994006464558,green,1,2,989.501930496736,770.628304621509,853.017481158529,350.57236181288,989.501930496736,770.628304621509,853.017481158529,350.57236181288,557.480588344736,678.799333565612,0,0,0,0,0,0,4,0,0,NaN,NaN,NaN,vertical,horizontal,horizontal,none,none,none
1c,15,100142,2,62,126,22,F,NA,variable,homogeneous,6,absent,0.95009708404541,1,horizontal,horizontal,1,0.611764353321445,green,1,NaN,804.450363641507,854.96116226488,NaN,NaN,804.450363641507,854.96116226488,1023.02802532055,723.626453162816,1018.57766167904,468.665290897936,795.549636358493,345.03883773512,576.971974679454,476.373546837184,581.422338320961,731.334709102064,4,0,0,0,0,0,horizontal,horizontal,vertical,vertical,vertical,horizontal
1c,15,100142,2,63,127,22,F,NA,variable,homogeneous,3,absent,0.762789011001587,1,horizontal,horizontal,1,0.88234447971467,green,2,NaN,1003.65205506206,446.537169096228,NaN,NaN,831.076682568313,853.099268668537,1003.65205506206,446.537169096228,565.271262369628,500.363562235235,0,0,0,0,0,0,0,4,0,NaN,NaN,NaN,horizontal,horizontal,vertical,none,none,none
1c,15,100142,2,64,128,22,F,NA,variable,homogeneous,6,absent,0.482733011245728,1,vertical,vertical,1,1.03528107289345,red,3,NaN,963.910840470068,404.658667004661,NaN,NaN,887.215136548046,839.621618300407,1051.12597701811,644.280285305067,963.910840470068,404.658667004661,712.784863451954,360.378381699593,548.874022981887,555.719714694933,636.089159529932,795.341332995339,0,0,4,0,0,0,vertical,horizontal,vertical,vertical,horizontal,vertical
1c,15,100142,3,1,129,22,F,NA,variable,homogeneous,5,absent,0.946371793746948,1,vertical,vertical,1,0.635293059964334,red,1,NaN,927.5,820.836477965032,NaN,NaN,927.5,820.836477965032,1049.42763818712,546.982518841471,826.654758133252,346.39691668109,567.045908301137,496.282156015671,629.371695378491,789.501930496736,0,0,4,0,0,0,0,NaN,vertical,vertical,horizontal,vertical,vertical,none
1c,15,100142,3,2,130,22,F,NA,variable,homogeneous,4,absent,0.556203842163086,1,horizontal,horizontal,1,0.941166246321893,green,1,NaN,646.537169096228,803.65205506206,NaN,NaN,646.537169096228,803.65205506206,1003.65205506206,753.462830903772,953.462830903772,396.34794493794,596.34794493794,446.537169096228,0,0,0,0,4,0,0,0,NaN,NaN,horizontal,horizontal,vertical,horizontal,none,none
1c,15,100142,3,3,131,22,F,NA,variable,homogeneous,3,absent,0.48855996131897,1,horizontal,horizontal,1,0.847051419750337,red,1,NaN,967.295052392579,792.450942956807,NaN,NaN,967.295052392579,792.450942956807,883.019879386575,358.892763222174,549.685068220846,648.656293821019,0,0,0,0,0,0,4,0,0,NaN,NaN,NaN,horizontal,vertical,horizontal,none,none,none
1c,15,100142,3,4,132,22,F,NA,variable,homogeneous,4,absent,0.479864120483398,1,horizontal,horizontal,1,0.858815773071781,red,4,NaN,545.970351986605,577.775285599347,NaN,NaN,777.775285599347,854.029648013395,1054.0296480134,622.224714400653,822.224714400653,345.970351986605,545.970351986605,577.775285599347,0,0,0,0,0,0,0,4,NaN,NaN,vertical,horizontal,vertical,horizontal,none,none
1c,15,100142,3,5,133,22,F,NA,variable,homogeneous,5,absent,0.546061992645264,1,horizontal,horizontal,1,0.635293059964334,green,4,NaN,639.523300282292,401.827779828472,NaN,NaN,813.345668841951,854.650531362416,1046.31108570371,665.998856501143,938.882953928832,386.139005173917,639.523300282292,401.827779828472,561.936991243214,691.383827134052,0,0,0,0,0,4,0,NaN,vertical,vertical,horizontal,horizontal,vertical,none
1c,15,100142,3,6,134,22,F,NA,variable,homogeneous,5,absent,0.474431037902832,1,horizontal,horizontal,1,0.670586119928668,red,5,NaN,545.155339110131,591.100628340862,NaN,NaN,712.784863451954,839.621618300407,1000.94274216971,756.993676208043,1011.40458100154,457.40580961496,729.712474266665,354.878267535729,545.155339110131,591.100628340862,0,0,0,0,0,0,4,NaN,horizontal,vertical,horizontal,vertical,horizontal,none
1c,15,100142,3,7,135,22,F,NA,variable,homogeneous,5,absent,0.437705993652344,1,vertical,vertical,1,0.658821766607223,green,3,NaN,949.885239334581,393.700666434388,NaN,NaN,800,855,1042.51941165526,678.799333565612,949.885239334581,393.700666434388,650.114760665419,393.700666434388,557.480588344736,678.799333565612,0,0,0,0,4,0,0,NaN,horizontal,vertical,vertical,vertical,horizontal,none
1c,15,100142,3,8,136,22,F,NA,variable,homogeneous,6,present,0.81387996673584,1,horizontal,horizontal,1,0.776465299821669,green,1,3,782.212099195248,854.378832816255,1029.19248180629,488.215357568785,782.212099195248,854.378832816255,1011.40458100154,742.594190385041,1029.19248180629,488.215357568785,817.787900804752,345.621167183745,588.595418998464,457.40580961496,570.807518193712,711.784642431215,4,0,0,0,0,0,horizontal,horizontal,horizontal,vertical,vertical,vertical
1c,15,100142,3,9,137,22,F,NA,variable,homogeneous,5,absent,0.487821102142334,1,horizontal,horizontal,1,1.07057413285778,green,4,NaN,586.139005173917,461.117046071168,NaN,NaN,891.383827134052,838.063008756786,1054.65053136242,586.654331158049,865.998856501143,353.688914296288,586.139005173917,461.117046071168,601.827779828472,760.476699717708,0,0,0,0,0,4,0,NaN,horizontal,horizontal,vertical,horizontal,vertical,none
1c,15,100142,3,10,138,22,F,NA,variable,homogeneous,4,present,0.680740118026733,1,horizontal,horizontal,1,0.75293659317878,green,1,4,688.215357568785,829.192481806288,570.807518193712,488.215357568785,688.215357568785,829.192481806288,1029.19248180629,711.784642431215,911.784642431215,370.807518193712,570.807518193712,488.215357568785,0,0,0,0,4,0,0,0,NaN,NaN,horizontal,vertical,horizontal,horizontal,none,none
1c,15,100142,3,11,139,22,F,NA,variable,homogeneous,6,present,1.00180101394653,1,vertical,vertical,1,0.964694952964783,red,4,6,708.616172865948,361.936991243214,639.523300282292,798.172220171528,891.383827134052,838.063008756786,1051.86052685176,639.890788585259,960.476699717708,401.827779828472,708.616172865948,361.936991243214,548.13947314824,560.109211414741,639.523300282292,798.172220171528,0,0,0,4,0,0,vertical,vertical,horizontal,vertical,horizontal,horizontal
1c,15,100142,3,12,140,22,F,NA,variable,homogeneous,3,present,0.415017127990723,1,vertical,vertical,1,1.04704542621489,green,1,2,870.287525733335,845.121732464271,977.137884467044,416.568350913644,870.287525733335,845.121732464271,977.137884467044,416.568350913644,552.574589799621,538.309916622085,0,0,0,0,0,0,4,0,0,NaN,NaN,NaN,vertical,horizontal,horizontal,none,none,none
1c,15,100142,3,13,141,22,F,NA,variable,homogeneous,3,present,0.839870929718018,0,vertical,horizontal,1,0.623528706642889,red,3,2,547.481642470899,564.510859255183,956.993676208043,399.057257830286,895.524681321058,836.431882914531,956.993676208043,399.057257830286,547.481642470899,564.510859255183,0,0,0,0,0,0,0,0,4,NaN,NaN,NaN,vertical,vertical,vertical,none,none,none
1c,15,100142,3,14,142,22,F,NA,variable,homogeneous,4,present,1.04914903640747,1,vertical,vertical,1,0.623528706642889,red,2,4,1027.20666366803,484.232422566416,572.793336331966,715.767577433584,915.767577433584,827.206663668034,1027.20666366803,484.232422566416,684.232422566416,372.793336331966,572.793336331966,715.767577433584,0,0,0,0,0,4,0,0,NaN,NaN,vertical,vertical,horizontal,vertical,none,none
1c,15,100142,3,15,143,22,F,NA,variable,homogeneous,4,present,0.607952117919922,1,horizontal,horizontal,1,0.870580126393226,red,3,4,911.784642431215,370.807518193712,570.807518193712,488.215357568785,688.215357568785,829.192481806288,1029.19248180629,711.784642431215,911.784642431215,370.807518193712,570.807518193712,488.215357568785,0,0,0,0,0,0,4,0,NaN,NaN,vertical,vertical,horizontal,horizontal,none,none
1c,15,100142,3,16,144,22,F,NA,variable,homogeneous,5,absent,0.685106992721558,1,horizontal,horizontal,1,0.847051419750337,red,4,NaN,558.892763222174,516.980120613425,NaN,NaN,946.261991269517,808.883771293693,1043.85771277057,525.445215295702,804.450363641507,345.03883773512,558.892763222174,516.980120613425,646.537169096228,803.65205506206,0,0,0,0,0,4,0,NaN,horizontal,horizontal,vertical,horizontal,vertical,none
1c,15,100142,3,17,145,22,F,NA,variable,homogeneous,3,absent,0.571364164352417,1,vertical,vertical,1,0.811758359786003,red,1,NaN,742.637481142314,848.464366520235,NaN,NaN,742.637481142314,848.464366520235,1043.85771277057,525.445215295702,613.504806087112,426.090418184063,0,0,0,0,0,0,4,0,0,NaN,NaN,NaN,vertical,vertical,horizontal,none,none,none
1c,15,100142,3,18,146,22,F,NA,variable,homogeneous,4,absent,0.693647861480713,1,vertical,vertical,1,0.741172239857335,red,1,NaN,942.594190385041,811.404581001536,NaN,NaN,942.594190385041,811.404581001536,1011.40458100154,457.40580961496,657.405809614959,388.595418998464,588.595418998464,742.594190385041,0,0,0,0,4,0,0,0,NaN,NaN,vertical,horizontal,horizontal,vertical,none,none
1c,15,100142,3,19,147,22,F,NA,variable,homogeneous,4,present,1.22692108154297,1,horizontal,horizontal,1,0.952930599643338,red,2,3,1027.20666366803,484.232422566416,684.232422566416,372.793336331966,915.767577433584,827.206663668034,1027.20666366803,484.232422566416,684.232422566416,372.793336331966,572.793336331966,715.767577433584,0,0,0,0,0,4,0,0,NaN,NaN,horizontal,horizontal,horizontal,vertical,none,none
1c,15,100142,3,20,148,22,F,NA,variable,homogeneous,3,absent,0.52900505065918,1,horizontal,horizontal,1,0.870580126393226,green,3,NaN,668.665290897936,381.422338320961,NaN,NaN,676.373546837184,823.028025320546,1054.96116226488,595.549636358493,668.665290897936,381.422338320961,0,0,0,0,0,0,0,0,4,NaN,NaN,NaN,vertical,horizontal,horizontal,none,none,none
1c,15,100142,3,21,149,22,F,NA,variable,homogeneous,5,present,0.674542903900146,1,vertical,vertical,1,0.929401893000449,green,5,3,601.827779828472,760.476699717708,865.998856501143,353.688914296288,891.383827134052,838.063008756786,1054.65053136242,586.654331158049,865.998856501143,353.688914296288,586.139005173917,461.117046071168,601.827779828472,760.476699717708,0,0,0,0,0,0,4,NaN,horizontal,horizontal,horizontal,vertical,vertical,none
1c,15,100142,3,22,150,22,F,NA,variable,homogeneous,3,present,1.09669089317322,1,horizontal,horizontal,1,1.02351671957201,red,2,1,1034.72873763037,699.636437764765,596.34794493794,753.462830903772,596.34794493794,753.462830903772,1034.72873763037,699.636437764765,768.923317431687,346.900731331463,0,0,0,0,0,0,0,4,0,NaN,NaN,NaN,vertical,horizontal,horizontal,none,none,none
1c,15,100142,3,23,151,22,F,NA,variable,homogeneous,5,present,0.519091129302979,0,vertical,horizontal,1,0.623528706642889,green,4,3,616.568350913644,422.862115532956,911.784642431215,370.807518193712,844.280285305067,851.125977018113,1052.5183575291,635.489140744817,911.784642431215,370.807518193712,616.568350913644,422.862115532956,574.848363820974,719.715248510402,0,0,0,0,0,4,0,NaN,horizontal,horizontal,vertical,vertical,horizontal,none
1c,15,100142,3,24,152,22,F,NA,variable,homogeneous,5,present,0.77947211265564,1,vertical,vertical,1,0.682350473250112,red,5,2,545.621167183745,617.787900804752,1016.25226451989,735.129412379467,738.309916622085,847.425410200379,1016.25226451989,735.129412379467,995.341332995339,436.089159529932,704.475318678942,363.568117085469,545.621167183745,617.787900804752,0,0,0,0,0,0,4,NaN,horizontal,horizontal,horizontal,horizontal,vertical,none
1c,15,100142,3,25,153,22,F,NA,variable,homogeneous,6,present,0.596621990203857,1,horizontal,horizontal,1,0.658821766607223,red,6,2,545.155339110131,608.899371659138,935.129412379467,816.252264519889,680.284751489598,825.151636179026,935.129412379467,816.252264519889,1054.84466088987,591.100628340862,919.715248510402,374.848363820974,664.870587620533,383.747735480111,545.155339110131,608.899371659138,0,0,0,0,0,4,horizontal,horizontal,horizontal,horizontal,vertical,horizontal
1c,15,100142,3,26,154,22,F,NA,variable,homogeneous,6,absent,0.653180122375488,1,horizontal,horizontal,1,0.623528706642889,green,5,NaN,576.971974679454,476.373546837184,NaN,NaN,804.450363641507,854.96116226488,1023.02802532055,723.626453162816,1018.57766167904,468.665290897936,795.549636358493,345.03883773512,576.971974679454,476.373546837184,581.422338320961,731.334709102064,0,0,0,0,4,0,vertical,vertical,vertical,horizontal,horizontal,horizontal
1c,15,100142,3,27,155,22,F,NA,variable,homogeneous,6,absent,0.656650066375732,1,horizontal,horizontal,1,0.729407886535891,red,2,NaN,1054.37883281626,617.787900804752,NaN,NaN,911.784642431215,829.192481806288,1054.37883281626,617.787900804752,942.594190385041,388.595418998464,688.215357568785,370.807518193712,545.621167183745,582.212099195248,657.405809614959,811.404581001536,0,4,0,0,0,0,vertical,horizontal,horizontal,horizontal,vertical,vertical
1c,15,100142,3,28,156,22,F,NA,variable,homogeneous,6,absent,0.611891031265259,1,vertical,vertical,1,0.90587318635756,red,5,NaN,546.39691668109,573.345241866748,NaN,NaN,903.717843984329,832.954091698863,1053.60308331891,626.654758133252,949.885239334581,393.700666434388,696.282156015671,367.045908301137,546.39691668109,573.345241866748,650.114760665419,806.299333565612,0,0,0,0,4,0,horizontal,vertical,vertical,vertical,vertical,horizontal
1c,15,100142,3,29,157,22,F,NA,variable,homogeneous,6,absent,1.20958113670349,1,horizontal,horizontal,1,0.858815773071781,green,5,NaN,558.892763222174,516.980120613425,NaN,NaN,848.656293821019,850.314931779154,1041.10723677783,683.019879386575,992.450942956807,432.704947607421,751.343706178981,349.685068220846,558.892763222174,516.980120613425,607.549057043193,767.295052392579,0,0,0,0,4,0,horizontal,horizontal,vertical,horizontal,horizontal,horizontal
1c,15,100142,3,30,158,22,F,NA,variable,homogeneous,3,absent,0.594247817993164,1,horizontal,horizontal,1,0.811758359786003,green,3,NaN,545,600,NaN,NaN,927.5,820.836477965032,927.5,379.163522034968,545,600,0,0,0,0,0,0,0,0,4,NaN,NaN,NaN,horizontal,horizontal,horizontal,none,none,none
1c,15,100142,3,31,159,22,F,NA,variable,homogeneous,6,absent,0.782392024993896,1,vertical,vertical,1,0.811758359786003,green,4,NaN,857.362518857686,351.535633479765,NaN,NaN,742.637481142314,848.464366520235,986.495193912888,773.909581815937,1043.85771277057,525.445215295702,857.362518857686,351.535633479765,613.504806087112,426.090418184063,556.142287229426,674.554784704298,0,0,0,4,0,0,horizontal,vertical,vertical,vertical,horizontal,horizontal
1c,15,100142,3,32,160,22,F,NA,variable,homogeneous,3,present,0.635254144668579,0,horizontal,vertical,1,0.847051419750337,green,2,1,1042.51941165526,678.799333565612,610.498069503264,770.628304621509,610.498069503264,770.628304621509,1042.51941165526,678.799333565612,746.982518841471,350.57236181288,0,0,0,0,0,0,0,4,0,NaN,NaN,NaN,vertical,horizontal,vertical,none,none,none
1c,15,100142,3,33,161,22,F,NA,variable,homogeneous,6,present,0.880211114883423,1,vertical,vertical,1,1.01175236625056,green,1,3,680.284751489598,825.151636179026,1054.84466088987,591.100628340862,680.284751489598,825.151636179026,935.129412379467,816.252264519889,1054.84466088987,591.100628340862,919.715248510402,374.848363820974,664.870587620533,383.747735480111,545.155339110131,608.899371659138,4,0,0,0,0,0,vertical,vertical,vertical,vertical,vertical,horizontal
1c,15,100142,3,34,162,22,F,NA,variable,homogeneous,6,absent,0.535114049911499,1,horizontal,horizontal,1,1.04704542621489,red,5,NaN,550.57236181288,546.982518841471,NaN,NaN,878.799333565612,842.519411655264,1049.42763818712,653.017481158529,970.628304621509,410.498069503264,721.200666434388,357.480588344736,550.57236181288,546.982518841471,629.371695378491,789.501930496736,0,0,0,0,4,0,horizontal,vertical,vertical,horizontal,horizontal,horizontal
1c,15,100142,3,35,163,22,F,NA,variable,homogeneous,5,absent,0.705831050872803,1,vertical,vertical,1,0.999988012929117,red,2,NaN,989.501930496736,770.628304621509,NaN,NaN,696.282156015671,832.954091698863,989.501930496736,770.628304621509,1020.83647796503,472.5,746.982518841471,350.57236181288,546.39691668109,573.345241866748,0,0,0,4,0,0,0,NaN,horizontal,vertical,horizontal,horizontal,horizontal,none
1c,15,100142,3,36,164,22,F,NA,variable,homogeneous,4,absent,0.84091591835022,1,vertical,vertical,1,0.635293059964334,green,1,NaN,626.090418184063,786.495193912888,NaN,NaN,626.090418184063,786.495193912888,986.495193912888,773.909581815937,973.909581815937,413.504806087112,613.504806087112,426.090418184063,0,0,0,0,4,0,0,0,NaN,NaN,vertical,vertical,vertical,vertical,none,none
1c,15,100142,3,37,165,22,F,NA,variable,homogeneous,5,present,0.962925910949707,1,vertical,vertical,1,0.647057413285778,red,2,4,1029.19248180629,711.784642431215,680.284751489598,374.848363820974,764.510859255183,852.518357529101,1029.19248180629,711.784642431215,977.137884467044,416.568350913644,680.284751489598,374.848363820974,548.874022981887,644.280285305067,0,0,0,4,0,0,0,NaN,vertical,vertical,vertical,vertical,vertical,none
1c,15,100142,3,38,166,22,F,NA,variable,homogeneous,6,present,1.05896997451782,1,vertical,vertical,1,0.635293059964334,green,1,5,764.510859255183,852.518357529101,599.057257830286,443.006323791957,764.510859255183,852.518357529101,1000.94274216971,756.993676208043,1036.43188291453,504.475318678942,835.489140744817,347.4816424709,599.057257830286,443.006323791957,563.568117085469,695.524681321058,4,0,0,0,0,0,vertical,vertical,vertical,vertical,horizontal,horizontal
1c,15,100142,3,39,167,22,F,NA,variable,homogeneous,4,absent,0.539386987686157,0,vertical,horizontal,1,0.952930599643338,green,3,NaN,619.68777079743,419.68777079743,NaN,NaN,980.31222920257,780.31222920257,980.31222920257,419.68777079743,619.68777079743,419.68777079743,619.68777079743,780.31222920257,0,0,0,0,0,0,4,0,NaN,NaN,horizontal,horizontal,vertical,vertical,none,none
1c,15,100142,3,40,168,22,F,NA,variable,homogeneous,3,absent,0.828356027603149,1,vertical,vertical,1,0.705879179893001,green,2,NaN,1048.46436652023,657.362518857686,NaN,NaN,626.090418184063,786.495193912888,1048.46436652023,657.362518857686,725.445215295702,356.142287229426,0,0,0,0,0,0,0,4,0,NaN,NaN,NaN,horizontal,vertical,horizontal,none,none,none
1c,15,100142,3,41,169,22,F,NA,variable,homogeneous,4,absent,0.479672193527222,1,vertical,vertical,1,0.729407886535891,red,2,NaN,989.501930496736,429.371695378491,NaN,NaN,970.628304621509,789.501930496736,989.501930496736,429.371695378491,629.371695378491,410.498069503264,610.498069503264,770.628304621509,0,0,0,0,0,4,0,0,NaN,NaN,vertical,vertical,horizontal,horizontal,none,none
1c,15,100142,3,42,170,22,F,NA,variable,homogeneous,3,present,0.499036073684692,1,vertical,vertical,1,0.682350473250112,green,2,3,848.656293821019,349.685068220846,558.892763222174,683.019879386575,992.450942956807,767.295052392579,848.656293821019,349.685068220846,558.892763222174,683.019879386575,0,0,0,0,0,0,0,4,0,NaN,NaN,NaN,horizontal,vertical,vertical,none,none,none
1c,15,100142,3,43,171,22,F,NA,variable,homogeneous,5,present,0.50753116607666,1,horizontal,horizontal,1,0.717643533214446,green,5,1,565.271262369628,699.636437764765,822.224714400653,854.029648013395,822.224714400653,854.029648013395,1048.46436652023,657.362518857686,931.334709102064,381.422338320961,632.704947607421,407.549057043193,565.271262369628,699.636437764765,0,0,0,0,0,0,4,NaN,horizontal,horizontal,horizontal,horizontal,horizontal,none
1c,15,100142,3,44,172,22,F,NA,variable,homogeneous,6,present,0.520277976989746,1,vertical,vertical,1,0.717643533214446,red,4,3,700.363562235235,365.271262369628,953.462830903772,396.34794493794,899.636437764765,834.728737630372,1053.09926866854,631.076682568313,953.462830903772,396.34794493794,700.363562235235,365.271262369628,546.900731331463,568.923317431687,646.537169096228,803.65205506206,0,0,0,4,0,0,horizontal,vertical,horizontal,vertical,horizontal,horizontal
1c,15,100142,3,45,173,22,F,NA,variable,homogeneous,4,present,0.98664116859436,1,vertical,vertical,1,0.988223659607672,red,3,4,861.690083377915,352.574589799621,552.574589799621,538.309916622085,738.309916622085,847.425410200379,1047.42541020038,661.690083377915,861.690083377915,352.574589799621,552.574589799621,538.309916622085,0,0,0,0,0,0,4,0,NaN,NaN,horizontal,horizontal,vertical,vertical,none,none
1c,15,100142,3,46,174,22,F,NA,variable,homogeneous,4,present,0.583413124084473,1,vertical,vertical,1,1.04704542621489,green,3,4,725.445215295702,356.142287229426,556.142287229426,674.554784704298,874.554784704298,843.857712770574,1043.85771277057,525.445215295702,725.445215295702,356.142287229426,556.142287229426,674.554784704298,0,0,0,0,0,0,4,0,NaN,NaN,horizontal,horizontal,vertical,horizontal,none,none
1c,15,100142,3,47,175,22,F,NA,variable,homogeneous,5,present,0.580592155456543,1,horizontal,horizontal,1,0.870580126393226,green,4,5,664.870587620533,383.747735480111,552.574589799621,661.690083377915,782.212099195248,854.378832816255,1036.43188291453,695.524681321058,963.910840470068,404.658667004661,664.870587620533,383.747735480111,552.574589799621,661.690083377915,0,0,0,0,0,4,0,NaN,horizontal,vertical,horizontal,horizontal,vertical,none
1c,15,100142,3,48,176,22,F,NA,variable,homogeneous,5,present,0.47747015953064,0,horizontal,vertical,1,0.858815773071781,red,3,1,1000.94274216971,443.006323791957,729.712474266665,845.121732464271,729.712474266665,845.121732464271,1011.40458100154,742.594190385041,1000.94274216971,443.006323791957,712.784863451954,360.378381699593,545.155339110131,608.899371659138,0,0,0,0,4,0,0,NaN,horizontal,horizontal,horizontal,horizontal,vertical,none
1c,15,100142,3,49,177,22,F,NA,variable,homogeneous,5,present,0.944369077682495,1,horizontal,horizontal,1,0.858815773071781,red,5,2,581.422338320961,731.334709102064,1054.0296480134,622.224714400653,857.362518857686,848.464366520235,1054.0296480134,622.224714400653,899.636437764765,365.271262369628,607.549057043193,432.704947607421,581.422338320961,731.334709102064,0,0,0,0,0,0,4,NaN,vertical,horizontal,horizontal,vertical,horizontal,none
1c,15,100142,3,50,178,22,F,NA,variable,homogeneous,3,present,0.934516906738281,1,horizontal,horizontal,1,0.75293659317878,red,1,2,853.017481158529,849.42763818712,989.501930496736,429.371695378491,853.017481158529,849.42763818712,989.501930496736,429.371695378491,557.480588344736,521.200666434388,0,0,0,0,0,0,4,0,0,NaN,NaN,NaN,horizontal,horizontal,vertical,none,none,none
1c,15,100142,3,51,179,22,F,NA,variable,homogeneous,6,present,0.660681009292603,1,horizontal,horizontal,1,0.964694952964783,red,4,2,923.626453162816,376.971974679454,931.334709102064,818.577661679039,676.373546837184,823.028025320546,931.334709102064,818.577661679039,1054.96116226488,595.549636358493,923.626453162816,376.971974679454,668.665290897936,381.422338320961,545.03883773512,604.450363641507,0,0,0,4,0,0,horizontal,vertical,vertical,horizontal,horizontal,vertical
1c,15,100142,3,52,180,22,F,NA,variable,homogeneous,4,absent,0.749160051345825,1,horizontal,horizontal,1,0.952930599643338,green,4,NaN,545,600,NaN,NaN,800,855,1055,600,800,345,545,600,0,0,0,0,0,0,0,4,NaN,NaN,horizontal,vertical,vertical,horizontal,none,none
1c,15,100142,3,53,181,22,F,NA,variable,homogeneous,3,present,0.655072927474976,1,vertical,vertical,1,0.941166246321893,red,2,3,931.334709102064,381.422338320961,545.03883773512,595.549636358493,923.626453162816,823.028025320546,931.334709102064,381.422338320961,545.03883773512,595.549636358493,0,0,0,0,0,0,0,4,0,NaN,NaN,NaN,horizontal,vertical,horizontal,none,none,none
1c,15,100142,3,54,182,22,F,NA,variable,homogeneous,4,present,0.935064077377319,1,vertical,vertical,1,0.741172239857335,green,4,1,548.874022981887,555.719714694933,755.719714694933,851.125977018113,755.719714694933,851.125977018113,1051.12597701811,644.280285305067,844.280285305067,348.874022981887,548.874022981887,555.719714694933,0,0,0,0,0,0,0,4,NaN,NaN,vertical,horizontal,horizontal,vertical,none,none
1c,15,100142,3,55,183,22,F,NA,variable,homogeneous,3,absent,0.478659152984619,1,vertical,vertical,1,1.03528107289345,red,3,NaN,547.481642470899,564.510859255183,NaN,NaN,895.524681321058,836.431882914531,956.993676208043,399.057257830286,547.481642470899,564.510859255183,0,0,0,0,0,0,0,0,4,NaN,NaN,NaN,horizontal,horizontal,vertical,none,none,none
1c,15,100142,3,56,184,22,F,NA,variable,homogeneous,6,absent,0.644181966781616,1,vertical,vertical,1,0.999988012929117,green,6,NaN,561.936991243214,691.383827134052,NaN,NaN,760.109211414741,851.86052685176,998.172220171528,760.476699717708,1038.06300875679,508.616172865948,839.890788585259,348.13947314824,601.827779828472,439.523300282291,561.936991243214,691.383827134052,0,0,0,0,0,4,vertical,vertical,vertical,horizontal,vertical,vertical
1c,15,100142,3,57,185,22,F,NA,variable,homogeneous,6,present,0.953596830368042,1,horizontal,horizontal,1,0.611764353321445,green,1,5,899.636437764765,834.728737630372,546.900731331463,568.923317431687,899.636437764765,834.728737630372,1053.09926866854,631.076682568313,953.462830903772,396.34794493794,700.363562235235,365.271262369628,546.900731331463,568.923317431687,646.537169096228,803.65205506206,4,0,0,0,0,0,horizontal,vertical,vertical,horizontal,horizontal,vertical
1c,15,100142,3,58,186,22,F,NA,variable,homogeneous,4,present,0.747466087341309,1,horizontal,horizontal,1,0.729407886535891,green,4,3,553.688914296288,665.998856501143,734.001143498857,353.688914296288,865.998856501143,846.311085703712,1046.31108570371,534.001143498857,734.001143498857,353.688914296288,553.688914296288,665.998856501143,0,0,0,0,0,0,0,4,NaN,NaN,vertical,horizontal,vertical,horizontal,none,none
1c,15,100142,3,59,187,22,F,NA,variable,homogeneous,6,absent,0.567226886749268,1,vertical,vertical,1,0.835287066428892,red,5,NaN,622.862115532956,416.568350913644,NaN,NaN,729.712474266665,845.121732464271,977.137884467044,783.431649086356,1047.42541020038,538.309916622085,870.287525733335,354.878267535729,622.862115532956,416.568350913644,552.574589799621,661.690083377915,0,0,0,0,4,0,vertical,horizontal,horizontal,vertical,vertical,vertical
1c,15,100142,3,60,188,22,F,NA,variable,homogeneous,4,absent,0.669410943984985,1,horizontal,horizontal,1,0.729407886535891,red,4,NaN,579.163522034968,727.5,NaN,NaN,927.5,820.836477965032,1020.83647796503,472.5,672.5,379.163522034968,579.163522034968,727.5,0,0,0,0,0,0,0,4,NaN,NaN,vertical,vertical,horizontal,horizontal,none,none
1c,15,100142,3,61,189,22,F,NA,variable,homogeneous,3,present,0.672258853912354,1,horizontal,horizontal,1,0.658821766607223,green,3,2,755.719714694933,348.874022981887,1039.62161830041,687.215136548046,604.658667004661,763.910840470068,1039.62161830041,687.215136548046,755.719714694933,348.874022981887,0,0,0,0,0,0,0,0,4,NaN,NaN,NaN,horizontal,horizontal,horizontal,none,none,none
1c,15,100142,3,62,190,22,F,NA,variable,homogeneous,5,absent,0.795385122299194,1,vertical,vertical,1,0.682350473250112,green,4,NaN,588.595418998464,457.40580961496,NaN,NaN,887.215136548046,839.621618300407,1054.84466088987,591.100628340862,870.287525733335,354.878267535729,588.595418998464,457.40580961496,599.057257830286,756.993676208043,0,0,0,0,0,4,0,NaN,horizontal,horizontal,horizontal,vertical,vertical,none
1c,15,100142,3,63,191,22,F,NA,variable,homogeneous,3,absent,0.412469148635864,1,vertical,vertical,1,0.847051419750337,green,3,NaN,579.163522034968,727.5,NaN,NaN,1020.83647796503,727.5,800,345,579.163522034968,727.5,0,0,0,0,0,0,0,0,4,NaN,NaN,NaN,vertical,vertical,vertical,none,none,none
1c,15,100142,3,64,192,22,F,NA,variable,homogeneous,3,absent,0.793065071105957,1,horizontal,horizontal,1,0.811758359786003,red,2,NaN,1053.60308331891,626.654758133252,NaN,NaN,650.114760665419,806.299333565612,1053.60308331891,626.654758133252,696.282156015671,367.045908301137,0,0,0,0,0,0,0,4,0,NaN,NaN,NaN,horizontal,horizontal,vertical,none,none,none
1c,15,100142,4,1,193,22,F,NA,variable,homogeneous,4,absent,0.842655897140503,1,horizontal,horizontal,1,0.835287066428892,green,1,NaN,813.345668841951,854.650531362416,NaN,NaN,813.345668841951,854.650531362416,1054.65053136242,586.654331158049,786.654331158049,345.349468637584,545.349468637584,613.345668841951,0,0,0,0,4,0,0,0,NaN,NaN,horizontal,horizontal,horizontal,horizontal,none,none
1c,15,100142,4,2,194,22,F,NA,variable,homogeneous,4,absent,0.630428075790405,1,horizontal,horizontal,1,0.741172239857335,red,1,NaN,946.261991269517,808.883771293693,NaN,NaN,946.261991269517,808.883771293693,1008.88377129369,453.738008730483,653.738008730483,391.116228706307,591.116228706307,746.261991269517,0,0,0,0,4,0,0,0,NaN,NaN,horizontal,horizontal,horizontal,horizontal,none,none
1c,15,100142,4,3,195,22,F,NA,variable,homogeneous,4,present,0.878592967987061,1,horizontal,horizontal,1,0.764700946500224,red,4,3,591.116228706307,746.261991269517,653.738008730483,391.116228706307,946.261991269517,808.883771293693,1008.88377129369,453.738008730483,653.738008730483,391.116228706307,591.116228706307,746.261991269517,0,0,0,0,0,0,0,4,NaN,NaN,horizontal,horizontal,vertical,horizontal,none,none
1c,15,100142,4,4,196,22,F,NA,variable,homogeneous,4,absent,0.960880994796753,1,horizontal,horizontal,1,1.03528107289345,green,2,NaN,989.501930496736,429.371695378491,NaN,NaN,970.628304621509,789.501930496736,989.501930496736,429.371695378491,629.371695378491,410.498069503264,610.498069503264,770.628304621509,0,0,0,0,0,4,0,0,NaN,NaN,horizontal,horizontal,horizontal,vertical,none,none
1c,15,100142,4,5,197,22,F,NA,variable,homogeneous,5,absent,0.793004989624023,1,vertical,vertical,1,0.835287066428892,green,5,NaN,570.807518193712,711.784642431215,NaN,NaN,835.489140744817,852.518357529101,1051.12597701811,644.280285305067,919.715248510402,374.848363820974,622.862115532956,416.568350913644,570.807518193712,711.784642431215,0,0,0,0,0,0,4,NaN,horizontal,horizontal,horizontal,horizontal,vertical,none
1c,15,100142,4,6,198,22,F,NA,variable,homogeneous,3,present,0.676975011825562,1,horizontal,horizontal,1,1.01175236625056,red,3,1,591.116228706307,453.738008730483,777.775285599347,854.029648013395,777.775285599347,854.029648013395,1031.10848569435,492.232343256122,591.116228706307,453.738008730483,0,0,0,0,0,0,0,0,4,NaN,NaN,NaN,horizontal,vertical,horizontal,none,none,none
1c,15,100142,4,7,199,22,F,NA,variable,homogeneous,3,present,0.628834009170532,0,vertical,horizontal,1,0.694114826571557,green,1,2,593.700666434388,749.885239334581,1032.95409169886,703.717843984329,593.700666434388,749.885239334581,1032.95409169886,703.717843984329,773.345241866748,346.39691668109,0,0,0,0,0,0,4,0,0,NaN,NaN,NaN,vertical,vertical,vertical,none,none,none
1c,15,100142,4,8,200,22,F,NA,variable,homogeneous,6,absent,0.941137075424194,1,horizontal,horizontal,1,0.988223659607672,red,4,NaN,878.799333565612,357.480588344736,NaN,NaN,721.200666434388,842.519411655264,970.628304621509,789.501930496736,1049.42763818712,546.982518841471,878.799333565612,357.480588344736,629.371695378491,410.498069503264,550.57236181288,653.017481158529,0,0,0,4,0,0,horizontal,vertical,vertical,horizontal,vertical,vertical
1c,15,100142,4,9,201,22,F,NA,variable,homogeneous,6,absent,0.697089910507202,1,vertical,vertical,1,0.635293059964334,red,1,NaN,907.767656743878,831.108485694346,NaN,NaN,907.767656743878,831.108485694346,1054.0296480134,622.224714400653,946.261991269517,391.116228706307,692.232343256122,368.891514305654,545.970351986605,577.775285599347,653.738008730483,808.883771293693,4,0,0,0,0,0,vertical,vertical,horizontal,vertical,vertical,vertical
1c,15,100142,4,10,202,22,F,NA,variable,homogeneous,6,absent,0.935577869415283,1,horizontal,horizontal,1,0.623528706642889,green,4,NaN,839.890788585259,348.13947314824,NaN,NaN,760.109211414741,851.86052685176,998.172220171528,760.476699717708,1038.06300875679,508.616172865948,839.890788585259,348.13947314824,601.827779828472,439.523300282291,561.936991243214,691.383827134052,0,0,0,4,0,0,horizontal,horizontal,vertical,horizontal,horizontal,horizontal
1c,15,100142,4,11,203,22,F,NA,variable,homogeneous,5,present,0.708891153335571,1,horizontal,horizontal,1,0.917637539679004,red,2,3,1055,600,878.799333565612,357.480588344736,878.799333565612,842.519411655264,1055,600,878.799333565612,357.480588344736,593.700666434388,450.114760665419,593.700666434388,749.885239334581,0,0,0,4,0,0,0,NaN,vertical,horizontal,horizontal,horizontal,horizontal,none
1c,15,100142,4,12,204,22,F,NA,variable,homogeneous,3,absent,0.631031036376953,1,vertical,vertical,1,0.799994006464558,red,3,NaN,561.936991243214,508.616172865948,NaN,NaN,839.890788585259,851.86052685176,998.172220171528,439.523300282291,561.936991243214,508.616172865948,0,0,0,0,0,0,0,0,4,NaN,NaN,NaN,horizontal,horizontal,vertical,none,none,none
1c,15,100142,4,13,205,22,F,NA,variable,homogeneous,6,absent,0.691923856735229,1,vertical,vertical,1,0.6,green,6,NaN,639.523300282292,798.172220171528,NaN,NaN,891.383827134052,838.063008756786,1051.86052685176,639.890788585259,960.476699717708,401.827779828472,708.616172865948,361.936991243214,548.13947314824,560.109211414741,639.523300282292,798.172220171528,0,0,0,0,0,4,vertical,horizontal,vertical,horizontal,vertical,vertical
1c,15,100142,4,14,206,22,F,NA,variable,homogeneous,5,present,0.98182201385498,0,horizontal,vertical,1,0.999988012929117,green,1,3,865.998856501143,846.311085703712,891.383827134052,361.936991243214,865.998856501143,846.311085703712,1054.65053136242,613.345668841951,891.383827134052,361.936991243214,601.827779828472,439.523300282291,586.139005173917,738.882953928832,0,0,4,0,0,0,0,NaN,horizontal,horizontal,horizontal,vertical,vertical,none
1c,15,100142,4,15,207,22,F,NA,variable,homogeneous,6,present,0.84937310218811,1,vertical,vertical,1,0.776465299821669,red,4,3,874.554784704298,356.142287229426,1048.46436652023,542.637481142314,725.445215295702,843.857712770574,973.909581815937,786.495193912888,1048.46436652023,542.637481142314,874.554784704298,356.142287229426,626.090418184063,413.504806087112,551.535633479765,657.362518857686,0,0,0,4,0,0,horizontal,horizontal,horizontal,vertical,vertical,horizontal
1c,15,100142,4,16,208,22,F,NA,variable,homogeneous,4,absent,0.647021055221558,1,vertical,vertical,1,0.623528706642889,green,2,NaN,1043.85771277057,525.445215295702,NaN,NaN,874.554784704298,843.857712770574,1043.85771277057,525.445215295702,725.445215295702,356.142287229426,556.142287229426,674.554784704298,0,0,0,0,0,4,0,0,NaN,NaN,vertical,vertical,horizontal,vertical,none,none
1c,15,100142,4,17,209,22,F,NA,variable,homogeneous,5,present,0.585607051849365,1,horizontal,horizontal,1,0.682350473250112,green,3,5,980.31222920257,419.68777079743,548.13947314824,639.890788585259,760.109211414741,851.86052685176,1027.20666366803,715.767577433584,980.31222920257,419.68777079743,684.232422566416,372.793336331966,548.13947314824,639.890788585259,0,0,0,0,4,0,0,NaN,horizontal,vertical,horizontal,horizontal,vertical,none
1c,15,100142,4,18,210,22,F,NA,variable,homogeneous,3,present,0.883089065551758,1,horizontal,horizontal,1,1.08233848617923,green,2,3,1055,600,672.5,379.163522034968,672.5,820.836477965032,1055,600,672.5,379.163522034968,0,0,0,0,0,0,0,4,0,NaN,NaN,NaN,horizontal,horizontal,horizontal,none,none,none
1c,15,100142,4,19,211,22,F,NA,variable,homogeneous,6,present,0.685981035232544,1,vertical,vertical,1,0.647057413285778,green,1,6,716.980120613425,841.107236777826,549.685068220846,648.656293821019,716.980120613425,841.107236777826,967.295052392579,792.450942956807,1050.31493177915,551.343706178981,883.019879386575,358.892763222174,632.704947607421,407.549057043193,549.685068220846,648.656293821019,4,0,0,0,0,0,vertical,horizontal,vertical,vertical,vertical,horizontal
1c,15,100142,4,20,212,22,F,NA,variable,homogeneous,4,present,1.16548609733582,1,vertical,vertical,1,1.08233848617923,red,4,2,572.793336331966,715.767577433584,1027.20666366803,484.232422566416,915.767577433584,827.206663668034,1027.20666366803,484.232422566416,684.232422566416,372.793336331966,572.793336331966,715.767577433584,0,0,0,0,0,0,0,4,NaN,NaN,vertical,horizontal,vertical,vertical,none,none
1c,15,100142,4,21,213,22,F,NA,variable,homogeneous,5,present,0.774960041046143,1,horizontal,horizontal,1,0.894108833036115,red,2,5,1016.25226451989,735.129412379467,545.621167183745,617.787900804752,738.309916622085,847.425410200379,1016.25226451989,735.129412379467,995.341332995339,436.089159529932,704.475318678942,363.568117085469,545.621167183745,617.787900804752,0,0,0,4,0,0,0,NaN,horizontal,horizontal,horizontal,horizontal,vertical,none
1c,15,100142,4,22,214,22,F,NA,variable,homogeneous,5,absent,0.554259061813354,1,horizontal,horizontal,1,0.776465299821669,red,2,NaN,1003.65205506206,753.462830903772,NaN,NaN,716.980120613425,841.107236777826,1003.65205506206,753.462830903772,1008.88377129369,453.738008730483,725.445215295702,356.142287229426,545.03883773512,595.549636358493,0,0,0,4,0,0,0,NaN,horizontal,horizontal,vertical,vertical,horizontal,none
1c,15,100142,4,23,215,22,F,NA,variable,homogeneous,3,absent,0.620760202407837,1,horizontal,horizontal,1,0.952930599643338,green,3,NaN,791.100628340862,345.155339110131,NaN,NaN,583.747735480111,735.129412379467,1025.15163617903,719.715248510402,791.100628340862,345.155339110131,0,0,0,0,0,0,0,0,4,NaN,NaN,NaN,vertical,horizontal,horizontal,none,none,none
1c,15,100142,4,24,216,22,F,NA,variable,homogeneous,6,present,0.673632860183716,0,horizontal,vertical,1,0.811758359786003,green,3,2,1054.96116226488,595.549636358493,931.334709102064,818.577661679039,676.373546837184,823.028025320546,931.334709102064,818.577661679039,1054.96116226488,595.549636358493,923.626453162816,376.971974679454,668.665290897936,381.422338320961,545.03883773512,604.450363641507,0,0,4,0,0,0,horizontal,vertical,horizontal,horizontal,vertical,horizontal
1c,15,100142,4,25,217,22,F,NA,variable,homogeneous,5,present,0.842916011810303,1,vertical,vertical,1,0.988223659607672,green,2,4,977.137884467044,783.431649086356,764.510859255183,347.4816424709,680.284751489598,825.151636179026,977.137884467044,783.431649086356,1029.19248180629,488.215357568785,764.510859255183,347.4816424709,548.874022981887,555.719714694933,0,0,0,4,0,0,0,NaN,vertical,vertical,vertical,vertical,vertical,none
1c,15,100142,4,26,218,22,F,NA,variable,homogeneous,5,present,NaN,0,vertical,none,0,0.717643533214446,red,3,1,949.885239334581,393.700666434388,800,855,800,855,1042.51941165526,678.799333565612,949.885239334581,393.700666434388,650.114760665419,393.700666434388,557.480588344736,678.799333565612,0,0,0,0,4,0,0,NaN,vertical,horizontal,vertical,horizontal,horizontal,none
1c,15,100142,4,27,219,22,F,NA,variable,homogeneous,5,present,0.942125797271729,1,vertical,vertical,1,0.788229653143114,red,1,3,853.017481158529,849.42763818712,903.717843984329,367.045908301137,853.017481158529,849.42763818712,1053.60308331891,626.654758133252,903.717843984329,367.045908301137,610.498069503264,429.371695378491,579.163522034968,727.5,0,0,4,0,0,0,0,NaN,vertical,vertical,horizontal,horizontal,horizontal,none
1c,15,100142,4,28,220,22,F,NA,variable,homogeneous,4,absent,0.632037878036499,1,vertical,vertical,1,0.941166246321893,green,1,NaN,973.909581815937,786.495193912888,NaN,NaN,973.909581815937,786.495193912888,986.495193912888,426.090418184063,626.090418184063,413.504806087112,613.504806087112,773.909581815937,0,0,0,0,4,0,0,0,NaN,NaN,vertical,vertical,horizontal,horizontal,none,none
1c,15,100142,4,29,221,22,F,NA,variable,homogeneous,3,present,0.568835973739624,1,vertical,vertical,1,0.788229653143114,red,3,2,742.637481142314,351.535633479765,1043.85771277057,674.554784704298,613.504806087112,773.909581815937,1043.85771277057,674.554784704298,742.637481142314,351.535633479765,0,0,0,0,0,0,0,0,4,NaN,NaN,NaN,horizontal,horizontal,vertical,none,none,none
1c,15,100142,4,30,222,22,F,NA,variable,homogeneous,6,present,1.04780721664429,1,horizontal,horizontal,1,0.976459306286227,red,5,6,574.848363820974,480.284751489598,583.747735480111,735.129412379467,808.899371659138,854.844660889869,1025.15163617903,719.715248510402,1016.25226451989,464.870587620533,791.100628340862,345.155339110131,574.848363820974,480.284751489598,583.747735480111,735.129412379467,0,0,0,0,4,0,horizontal,vertical,vertical,horizontal,horizontal,horizontal
1c,15,100142,4,31,223,22,F,NA,variable,homogeneous,4,absent,0.719725131988525,1,vertical,vertical,1,0.741172239857335,red,2,NaN,1025.15163617903,719.715248510402,NaN,NaN,680.284751489598,825.151636179026,1025.15163617903,719.715248510402,919.715248510402,374.848363820974,574.848363820974,480.284751489598,0,0,0,0,0,4,0,0,NaN,NaN,horizontal,vertical,horizontal,vertical,none,none
1c,15,100142,4,32,224,22,F,NA,variable,homogeneous,5,absent,0.722349882125854,1,horizontal,horizontal,1,1.01175236625056,green,1,NaN,746.982518841471,849.42763818712,NaN,NaN,746.982518841471,849.42763818712,1020.83647796503,727.5,989.501930496736,429.371695378491,696.282156015671,367.045908301137,546.39691668109,626.654758133252,0,0,4,0,0,0,0,NaN,horizontal,horizontal,vertical,horizontal,horizontal,none
1c,15,100142,4,33,225,22,F,NA,variable,homogeneous,3,absent,1.03204798698425,1,vertical,vertical,1,0.929401893000449,green,1,NaN,704.475318678942,836.431882914531,NaN,NaN,704.475318678942,836.431882914531,1052.5183575291,564.510859255183,643.006323791957,399.057257830286,0,0,0,0,0,0,4,0,0,NaN,NaN,NaN,vertical,horizontal,horizontal,none,none,none
1c,15,100142,4,34,226,22,F,NA,variable,homogeneous,3,present,1.24751091003418,0,vertical,horizontal,1,0.941166246321893,green,3,2,568.891514305654,492.232343256122,1008.88377129369,453.738008730483,822.224714400653,854.029648013395,1008.88377129369,453.738008730483,568.891514305654,492.232343256122,0,0,0,0,0,0,0,0,4,NaN,NaN,NaN,vertical,horizontal,vertical,none,none,none
1c,15,100142,4,35,227,22,F,NA,variable,homogeneous,5,absent,0.965214014053345,1,vertical,vertical,1,1.02351671957201,red,2,NaN,1052.5183575291,564.510859255183,NaN,NaN,911.784642431215,829.192481806288,1052.5183575291,564.510859255183,844.280285305067,348.874022981887,574.848363820974,480.284751489598,616.568350913644,777.137884467044,0,0,0,4,0,0,0,NaN,vertical,vertical,vertical,horizontal,vertical,none
1c,15,100142,4,36,228,22,F,NA,variable,homogeneous,5,absent,0.644383192062378,1,vertical,vertical,1,0.976459306286227,green,5,NaN,583.747735480111,735.129412379467,NaN,NaN,861.690083377915,847.425410200379,1054.37883281626,617.787900804752,895.524681321058,363.568117085469,604.658667004661,436.089159529932,583.747735480111,735.129412379467,0,0,0,0,0,0,4,NaN,horizontal,horizontal,horizontal,vertical,vertical,none
1c,15,100142,4,37,229,22,F,NA,variable,homogeneous,6,absent,0.572253942489624,1,vertical,vertical,1,0.75293659317878,red,2,NaN,1032.95409169886,703.717843984329,NaN,NaN,826.654758133252,853.60308331891,1032.95409169886,703.717843984329,1006.29933356561,450.114760665419,773.345241866748,346.39691668109,567.045908301137,496.282156015671,593.700666434388,749.885239334581,0,4,0,0,0,0,horizontal,vertical,horizontal,vertical,vertical,vertical
1c,15,100142,4,38,230,22,F,NA,variable,homogeneous,6,present,0.647405862808228,1,vertical,vertical,1,0.788229653143114,red,1,6,822.224714400653,854.029648013395,591.116228706307,746.261991269517,822.224714400653,854.029648013395,1031.10848569435,707.767656743878,1008.88377129369,453.738008730483,777.775285599347,345.970351986605,568.891514305654,492.232343256122,591.116228706307,746.261991269517,4,0,0,0,0,0,vertical,horizontal,horizontal,vertical,vertical,horizontal
1c,15,100142,4,39,231,22,F,NA,variable,homogeneous,4,absent,0.487350940704346,1,vertical,vertical,1,0.941166246321893,red,1,NaN,835.489140744817,852.518357529101,NaN,NaN,835.489140744817,852.518357529101,1052.5183575291,564.510859255183,764.510859255183,347.4816424709,547.481642470899,635.489140744817,0,0,0,0,4,0,0,0,NaN,NaN,vertical,vertical,vertical,horizontal,none,none
1c,15,100142,4,40,232,22,F,NA,variable,homogeneous,5,absent,0.76301908493042,1,horizontal,horizontal,1,0.670586119928668,red,3,NaN,989.501930496736,429.371695378491,NaN,NaN,746.982518841471,849.42763818712,1020.83647796503,727.5,989.501930496736,429.371695378491,696.282156015671,367.045908301137,546.39691668109,626.654758133252,0,0,0,0,4,0,0,NaN,vertical,horizontal,horizontal,horizontal,vertical,none
1c,15,100142,4,41,233,22,F,NA,variable,homogeneous,4,absent,0.432555913925171,1,horizontal,horizontal,1,0.717643533214446,red,4,NaN,545.349468637584,586.654331158049,NaN,NaN,786.654331158049,854.650531362416,1054.65053136242,613.345668841951,813.345668841951,345.349468637584,545.349468637584,586.654331158049,0,0,0,0,0,0,0,4,NaN,NaN,horizontal,vertical,vertical,horizontal,none,none
1c,15,100142,4,42,234,22,F,NA,variable,homogeneous,6,absent,0.651031970977783,1,horizontal,horizontal,1,0.88234447971467,green,2,NaN,935.129412379467,816.252264519889,NaN,NaN,680.284751489598,825.151636179026,935.129412379467,816.252264519889,1054.84466088987,591.100628340862,919.715248510402,374.848363820974,664.870587620533,383.747735480111,545.155339110131,608.899371659138,0,4,0,0,0,0,horizontal,horizontal,vertical,vertical,vertical,vertical
1c,15,100142,4,43,235,22,F,NA,variable,homogeneous,5,absent,0.770287036895752,1,horizontal,horizontal,1,0.917637539679004,green,2,NaN,1053.09926866854,631.076682568313,NaN,NaN,848.656293821019,850.314931779154,1053.09926866854,631.076682568313,907.767656743878,368.891514305654,613.504806087112,426.090418184063,576.971974679454,723.626453162816,0,0,0,4,0,0,0,NaN,vertical,horizontal,horizontal,horizontal,horizontal,none
1c,15,100142,4,44,236,22,F,NA,variable,homogeneous,5,present,0.752147912979126,1,vertical,vertical,1,0.90587318635756,green,4,2,613.504806087112,426.090418184063,1053.09926866854,631.076682568313,848.656293821019,850.314931779154,1053.09926866854,631.076682568313,907.767656743878,368.891514305654,613.504806087112,426.090418184063,576.971974679454,723.626453162816,0,0,0,0,0,4,0,NaN,vertical,vertical,vertical,vertical,horizontal,none
1c,15,100142,4,45,237,22,F,NA,variable,homogeneous,5,absent,0.752534151077271,1,vertical,vertical,1,1.05880977953634,red,3,NaN,865.998856501143,353.688914296288,NaN,NaN,891.383827134052,838.063008756786,1054.65053136242,586.654331158049,865.998856501143,353.688914296288,586.139005173917,461.117046071168,601.827779828472,760.476699717708,0,0,0,0,4,0,0,NaN,vertical,vertical,vertical,vertical,horizontal,none
1c,15,100142,4,46,238,22,F,NA,variable,homogeneous,4,present,0.982177972793579,1,vertical,vertical,1,0.717643533214446,green,4,2,596.34794493794,446.537169096228,1003.65205506206,753.462830903772,646.537169096228,803.65205506206,1003.65205506206,753.462830903772,953.462830903772,396.34794493794,596.34794493794,446.537169096228,0,0,0,0,0,0,0,4,NaN,NaN,horizontal,horizontal,horizontal,vertical,none,none
1c,15,100142,4,47,239,22,F,NA,variable,homogeneous,6,absent,0.61424994468689,1,vertical,vertical,1,0.611764353321445,green,6,NaN,546.39691668109,626.654758133252,NaN,NaN,696.282156015671,832.954091698863,949.885239334581,806.299333565612,1053.60308331891,573.345241866748,903.717843984329,367.045908301137,650.114760665419,393.700666434388,546.39691668109,626.654758133252,0,0,0,0,0,4,horizontal,vertical,horizontal,horizontal,horizontal,vertical
1c,15,100142,4,48,240,22,F,NA,variable,homogeneous,4,present,0.748562097549438,0,horizontal,vertical,1,1.08233848617923,green,3,4,742.637481142314,351.535633479765,551.535633479765,657.362518857686,857.362518857686,848.464366520235,1048.46436652023,542.637481142314,742.637481142314,351.535633479765,551.535633479765,657.362518857686,0,0,0,0,0,0,4,0,NaN,NaN,horizontal,vertical,horizontal,horizontal,none,none
1c,15,100142,4,49,241,22,F,NA,variable,homogeneous,4,present,0.758893013000488,1,horizontal,horizontal,1,0.964694952964783,green,3,1,619.68777079743,419.68777079743,980.31222920257,780.31222920257,980.31222920257,780.31222920257,980.31222920257,419.68777079743,619.68777079743,419.68777079743,619.68777079743,780.31222920257,0,0,0,0,0,0,4,0,NaN,NaN,horizontal,vertical,horizontal,vertical,none,none
1c,15,100142,4,50,242,22,F,NA,variable,homogeneous,6,present,1.05898904800415,1,vertical,vertical,1,1.04704542621489,green,2,3,931.334709102064,818.577661679039,1054.96116226488,595.549636358493,676.373546837184,823.028025320546,931.334709102064,818.577661679039,1054.96116226488,595.549636358493,923.626453162816,376.971974679454,668.665290897936,381.422338320961,545.03883773512,604.450363641507,0,4,0,0,0,0,horizontal,vertical,vertical,vertical,horizontal,vertical
1c,15,100142,4,51,243,22,F,NA,variable,homogeneous,4,present,1.22632193565369,1,horizontal,horizontal,1,0.682350473250112,red,1,4,808.899371659138,854.844660889869,545.155339110131,608.899371659138,808.899371659138,854.844660889869,1054.84466088987,591.100628340862,791.100628340862,345.155339110131,545.155339110131,608.899371659138,0,0,0,0,4,0,0,0,NaN,NaN,horizontal,vertical,vertical,horizontal,none,none
1c,15,100142,4,52,244,22,F,NA,variable,homogeneous,3,absent,0.693656921386719,1,horizontal,horizontal,1,0.929401893000449,green,2,NaN,938.882953928832,386.139005173917,NaN,NaN,915.767577433584,827.206663668034,938.882953928832,386.139005173917,545.349468637584,586.654331158049,0,0,0,0,0,0,0,4,0,NaN,NaN,NaN,horizontal,horizontal,vertical,none,none,none
1c,15,100142,4,53,245,22,F,NA,variable,homogeneous,3,absent,0.674244165420532,1,horizontal,horizontal,1,0.929401893000449,red,2,NaN,1011.40458100154,457.40580961496,NaN,NaN,817.787900804752,854.378832816255,1011.40458100154,457.40580961496,570.807518193712,488.215357568785,0,0,0,0,0,0,0,4,0,NaN,NaN,NaN,vertical,horizontal,vertical,none,none,none
