experiment,subject,uniqueID,block,trial,trial_cumulative,age,gender,color_cond_blocking,color_history,shape_type,set_size,distractor,rt,acc,target_orient,response_key,response_made,iti,target_color,target_item,distractor_item,target_X,target_Y,distractor_X,distractor_Y,item1_X,item1_Y,item2_X,item2_Y,item3_X,item3_Y,item4_X,item4_Y,item5_X,item5_Y,item6_X,item6_Y,item1_shape,item2_shape,item3_shape,item4_shape,item5_shape,item6_shape,item1_line,item2_line,item3_line,item4_line,item5_line,item6_line
1c,16,100143,1,1,1,19,F,NA,variable,homogeneous,4,present,1.34262299537659,1,horizontal,horizontal,1,0.764700880917636,green,1,4,729.712474266665,845.121732464271,554.878267535729,529.712474266665,729.712474266665,845.121732464271,1045.12173246427,670.287525733335,870.287525733335,354.878267535729,554.878267535729,529.712474266665,0,0,0,0,4,0,0,0,NaN,NaN,horizontal,vertical,vertical,vertical,none,none
1c,16,100143,1,2,2,19,F,NA,variable,homogeneous,6,absent,1.22381210327148,1,horizontal,horizontal,1,0.71764348636974,red,4,NaN,822.224714400653,345.970351986605,NaN,NaN,777.775285599347,854.029648013395,1008.88377129369,746.261991269517,1031.10848569435,492.232343256122,822.224714400653,345.970351986605,591.116228706307,453.738008730483,568.891514305654,707.767656743878,0,0,0,4,0,0,vertical,horizontal,horizontal,horizontal,horizontal,horizontal
1c,16,100143,1,3,3,19,F,NA,variable,homogeneous,6,present,0.586963891983032,1,vertical,vertical,1,0.905873064561324,red,4,3,831.076682568313,346.900731331463,1034.72873763037,500.363562235235,768.923317431687,853.099268668537,1003.65205506206,753.462830903772,1034.72873763037,500.363562235235,831.076682568313,346.900731331463,596.34794493794,446.537169096228,565.271262369628,699.636437764765,0,0,0,4,0,0,horizontal,vertical,vertical,vertical,horizontal,horizontal
1c,16,100143,1,4,4,19,F,NA,variable,homogeneous,3,present,1.16506886482239,1,vertical,vertical,1,0.917637413198298,green,2,1,804.450363641507,345.03883773512,1018.57766167904,731.334709102064,1018.57766167904,731.334709102064,804.450363641507,345.03883773512,576.971974679454,723.626453162816,0,0,0,0,0,0,0,4,0,NaN,NaN,NaN,horizontal,vertical,horizontal,none,none,none
1c,16,100143,1,5,5,19,F,NA,variable,homogeneous,5,present,1.01303911209106,1,horizontal,horizontal,1,0.623528697273948,green,5,2,557.480588344736,678.799333565612,1042.51941165526,678.799333565612,800,855,1042.51941165526,678.799333565612,949.885239334581,393.700666434388,650.114760665419,393.700666434388,557.480588344736,678.799333565612,0,0,0,0,0,0,4,NaN,horizontal,vertical,horizontal,vertical,horizontal,none
1c,16,100143,1,6,6,19,F,NA,variable,homogeneous,4,present,0.582879066467285,1,vertical,vertical,1,0.670586091821844,green,2,4,1048.46436652023,542.637481142314,551.535633479765,657.362518857686,857.362518857686,848.464366520235,1048.46436652023,542.637481142314,742.637481142314,351.535633479765,551.535633479765,657.362518857686,0,0,0,0,0,4,0,0,NaN,NaN,vertical,vertical,vertical,vertical,none,none
1c,16,100143,1,7,7,19,F,NA,variable,homogeneous,5,absent,0.99907398223877,1,vertical,vertical,1,0.611764348636974,green,4,NaN,716.980120613425,358.892763222174,NaN,NaN,725.445215295702,843.857712770574,1008.88377129369,746.261991269517,1003.65205506206,446.537169096228,716.980120613425,358.892763222174,545.03883773512,604.450363641507,0,0,0,0,0,4,0,NaN,vertical,vertical,vertical,vertical,horizontal,none
1c,16,100143,1,8,8,19,F,NA,variable,homogeneous,4,absent,0.844707012176514,1,vertical,vertical,1,0.870580018650402,red,4,NaN,574.848363820974,480.284751489598,NaN,NaN,680.284751489598,825.151636179026,1025.15163617903,719.715248510402,919.715248510402,374.848363820974,574.848363820974,480.284751489598,0,0,0,0,0,0,0,4,NaN,NaN,vertical,vertical,vertical,vertical,none,none
1c,16,100143,1,9,9,19,F,NA,variable,homogeneous,6,absent,0.77374005317688,0,horizontal,vertical,1,0.6,red,3,NaN,1029.19248180629,488.215357568785,NaN,NaN,782.212099195248,854.378832816255,1011.40458100154,742.594190385041,1029.19248180629,488.215357568785,817.787900804752,345.621167183745,588.595418998464,457.40580961496,570.807518193712,711.784642431215,0,0,4,0,0,0,vertical,vertical,horizontal,vertical,vertical,horizontal
1c,16,100143,1,10,10,19,F,NA,variable,homogeneous,3,absent,0.990702152252197,1,horizontal,horizontal,1,0.670586091821844,green,1,NaN,927.5,820.836477965032,NaN,NaN,927.5,820.836477965032,927.5,379.163522034968,545,600,0,0,0,0,0,0,4,0,0,NaN,NaN,NaN,horizontal,horizontal,horizontal,none,none,none
1c,16,100143,1,11,11,19,F,NA,variable,homogeneous,3,present,0.740080833435059,1,vertical,vertical,1,1.05880959684199,red,3,2,626.090418184063,413.504806087112,1048.46436652023,542.637481142314,725.445215295702,843.857712770574,1048.46436652023,542.637481142314,626.090418184063,413.504806087112,0,0,0,0,0,0,0,0,4,NaN,NaN,NaN,vertical,vertical,vertical,none,none,none
1c,16,100143,1,12,12,19,F,NA,variable,homogeneous,6,absent,1.50420379638672,1,vertical,vertical,1,1.05880959684199,green,1,NaN,704.475318678942,836.431882914531,NaN,NaN,704.475318678942,836.431882914531,956.993676208043,800.942742169714,1052.5183575291,564.510859255183,895.524681321058,363.568117085469,643.006323791957,399.057257830286,547.481642470899,635.489140744817,4,0,0,0,0,0,vertical,horizontal,horizontal,horizontal,horizontal,horizontal
1c,16,100143,1,13,13,19,F,NA,variable,homogeneous,6,present,1.02743601799011,1,vertical,vertical,1,0.858815670013428,green,1,5,672.5,820.836477965032,672.5,379.163522034968,672.5,820.836477965032,927.5,820.836477965032,1055,600,927.5,379.163522034968,672.5,379.163522034968,545,600,4,0,0,0,0,0,vertical,horizontal,vertical,vertical,horizontal,vertical
1c,16,100143,1,14,14,19,F,NA,variable,homogeneous,5,present,1.22803783416748,1,vertical,vertical,1,0.988223505020142,green,4,1,639.523300282292,401.827779828472,813.345668841951,854.650531362416,813.345668841951,854.650531362416,1046.31108570371,665.998856501143,938.882953928832,386.139005173917,639.523300282292,401.827779828472,561.936991243214,691.383827134052,0,0,0,0,0,4,0,NaN,horizontal,horizontal,vertical,vertical,horizontal,none
1c,16,100143,1,15,15,19,F,NA,variable,homogeneous,6,absent,1.19657111167908,1,vertical,vertical,1,0.988223505020142,red,6,NaN,546.900731331463,631.076682568313,NaN,NaN,700.363562235235,834.728737630372,953.462830903772,803.65205506206,1053.09926866854,568.923317431687,899.636437764765,365.271262369628,646.537169096228,396.34794493794,546.900731331463,631.076682568313,0,0,0,0,0,4,vertical,vertical,vertical,vertical,horizontal,vertical
1c,16,100143,1,16,16,19,F,NA,variable,homogeneous,4,absent,1.43277096748352,1,vertical,vertical,1,0.611764348636974,green,4,NaN,557.480588344736,678.799333565612,NaN,NaN,878.799333565612,842.519411655264,1042.51941165526,521.200666434388,721.200666434388,357.480588344736,557.480588344736,678.799333565612,0,0,0,0,0,0,0,4,NaN,NaN,vertical,vertical,horizontal,vertical,none,none
1c,16,100143,1,17,17,19,F,NA,variable,homogeneous,5,present,0.992853879928589,1,vertical,vertical,1,0.764700880917636,green,5,2,579.163522034968,727.5,1053.60308331891,626.654758133252,853.017481158529,849.42763818712,1053.60308331891,626.654758133252,903.717843984329,367.045908301137,610.498069503264,429.371695378491,579.163522034968,727.5,0,0,0,0,0,0,4,NaN,vertical,horizontal,vertical,horizontal,vertical,none
1c,16,100143,1,18,18,19,F,NA,variable,homogeneous,3,present,0.76471996307373,1,vertical,vertical,1,0.988223505020142,red,1,2,755.719714694933,851.125977018113,1039.62161830041,512.784863451954,755.719714694933,851.125977018113,1039.62161830041,512.784863451954,604.658667004661,436.089159529932,0,0,0,0,0,0,4,0,0,NaN,NaN,NaN,vertical,vertical,horizontal,none,none,none
1c,16,100143,1,19,19,19,F,NA,variable,homogeneous,4,present,0.772767066955566,1,horizontal,horizontal,1,1.02351655093106,red,3,4,822.224714400653,345.970351986605,545.970351986605,577.775285599347,777.775285599347,854.029648013395,1054.0296480134,622.224714400653,822.224714400653,345.970351986605,545.970351986605,577.775285599347,0,0,0,0,0,0,4,0,NaN,NaN,vertical,vertical,horizontal,vertical,none,none
1c,16,100143,1,20,20,19,F,NA,variable,homogeneous,3,present,1.06775712966919,0,horizontal,vertical,1,0.976459156383168,red,2,1,1049.42763818712,653.017481158529,629.371695378491,789.501930496736,629.371695378491,789.501930496736,1049.42763818712,653.017481158529,721.200666434388,357.480588344736,0,0,0,0,0,0,0,4,0,NaN,NaN,NaN,vertical,horizontal,vertical,none,none,none
1c,16,100143,1,21,21,19,F,NA,variable,homogeneous,4,absent,1.04708409309387,1,vertical,vertical,1,1.09410264275291,red,2,NaN,1020.83647796503,727.5,NaN,NaN,672.5,820.836477965032,1020.83647796503,727.5,927.5,379.163522034968,579.163522034968,472.5,0,0,0,0,0,4,0,0,NaN,NaN,vertical,vertical,vertical,vertical,none,none
1c,16,100143,1,22,22,19,F,NA,variable,homogeneous,3,present,1.865473985672,1,horizontal,horizontal,1,0.858815670013428,green,1,3,668.665290897936,818.577661679039,676.373546837184,376.971974679454,668.665290897936,818.577661679039,1054.96116226488,604.450363641507,676.373546837184,376.971974679454,0,0,0,0,0,0,4,0,0,NaN,NaN,NaN,horizontal,vertical,vertical,none,none,none
1c,16,100143,1,23,23,19,F,NA,variable,homogeneous,6,present,0.999772071838379,1,horizontal,horizontal,1,0.83528697273948,red,1,4,835.489140744817,852.518357529101,764.510859255183,347.4816424709,835.489140744817,852.518357529101,1036.43188291453,695.524681321058,1000.94274216971,443.006323791957,764.510859255183,347.4816424709,563.568117085469,504.475318678942,599.057257830286,756.993676208043,4,0,0,0,0,0,horizontal,horizontal,vertical,vertical,horizontal,vertical
1c,16,100143,1,24,24,19,F,NA,variable,homogeneous,5,present,0.945213079452515,1,horizontal,horizontal,1,0.65882174318487,red,1,4,700.363562235235,834.728737630372,742.637481142314,351.535633479765,700.363562235235,834.728737630372,992.450942956807,767.295052392579,1018.57766167904,468.665290897936,742.637481142314,351.535633479765,545.970351986605,577.775285599347,0,0,4,0,0,0,0,NaN,horizontal,vertical,horizontal,vertical,vertical,none
1c,16,100143,1,25,25,19,F,NA,variable,homogeneous,3,absent,0.885940074920654,1,vertical,vertical,1,0.882344367287376,green,2,NaN,1054.96116226488,595.549636358493,NaN,NaN,676.373546837184,823.028025320546,1054.96116226488,595.549636358493,668.665290897936,381.422338320961,0,0,0,0,0,0,0,4,0,NaN,NaN,NaN,vertical,vertical,vertical,none,none,none
1c,16,100143,1,26,26,19,F,NA,variable,homogeneous,6,absent,0.972522974014282,1,horizontal,horizontal,1,0.635293045910922,green,2,NaN,1053.60308331891,626.654758133252,NaN,NaN,903.717843984329,832.954091698863,1053.60308331891,626.654758133252,949.885239334581,393.700666434388,696.282156015671,367.045908301137,546.39691668109,573.345241866748,650.114760665419,806.299333565612,0,4,0,0,0,0,vertical,horizontal,vertical,horizontal,horizontal,horizontal
1c,16,100143,1,27,27,19,F,NA,variable,homogeneous,6,absent,1.04078698158264,1,vertical,vertical,1,0.635293045910922,red,4,NaN,887.215136548046,360.378381699593,NaN,NaN,712.784863451954,839.621618300407,963.910840470068,795.341332995339,1051.12597701811,555.719714694933,887.215136548046,360.378381699593,636.089159529932,404.658667004661,548.874022981887,644.280285305067,0,0,0,4,0,0,horizontal,horizontal,horizontal,vertical,horizontal,vertical
1c,16,100143,1,28,28,19,F,NA,variable,homogeneous,3,absent,1.28892302513123,1,horizontal,horizontal,1,0.752936532280662,green,2,NaN,1045.12173246427,529.712474266665,NaN,NaN,738.309916622085,847.425410200379,1045.12173246427,529.712474266665,616.568350913644,422.862115532956,0,0,0,0,0,0,0,4,0,NaN,NaN,NaN,horizontal,horizontal,vertical,none,none,none
1c,16,100143,1,29,29,19,F,NA,variable,homogeneous,4,absent,0.696417093276978,1,horizontal,horizontal,1,0.882344367287376,green,2,NaN,1050.31493177915,551.343706178981,NaN,NaN,848.656293821019,850.314931779154,1050.31493177915,551.343706178981,751.343706178981,349.685068220846,549.685068220846,648.656293821019,0,0,0,0,0,4,0,0,NaN,NaN,horizontal,horizontal,vertical,horizontal,none,none
1c,16,100143,1,30,30,19,F,NA,variable,homogeneous,5,present,0.991595029830933,1,vertical,vertical,1,0.647057394547896,red,4,3,704.475318678942,363.568117085469,995.341332995339,436.089159529932,738.309916622085,847.425410200379,1016.25226451989,735.129412379467,995.341332995339,436.089159529932,704.475318678942,363.568117085469,545.621167183745,617.787900804752,0,0,0,0,0,4,0,NaN,horizontal,horizontal,horizontal,vertical,vertical,none
1c,16,100143,1,31,31,19,F,NA,variable,homogeneous,5,present,1.81272506713867,1,horizontal,horizontal,1,1.05880959684199,green,5,2,570.807518193712,711.784642431215,1051.12597701811,644.280285305067,835.489140744817,852.518357529101,1051.12597701811,644.280285305067,919.715248510402,374.848363820974,622.862115532956,416.568350913644,570.807518193712,711.784642431215,0,0,0,0,0,0,4,NaN,horizontal,horizontal,horizontal,horizontal,horizontal,none
1c,16,100143,1,32,32,19,F,NA,variable,homogeneous,6,present,0.875113010406494,1,vertical,vertical,1,1.08233829411593,green,4,1,899.636437764765,365.271262369628,700.363562235235,834.728737630372,700.363562235235,834.728737630372,953.462830903772,803.65205506206,1053.09926866854,568.923317431687,899.636437764765,365.271262369628,646.537169096228,396.34794493794,546.900731331463,631.076682568313,0,0,0,4,0,0,horizontal,vertical,vertical,vertical,horizontal,horizontal
1c,16,100143,1,33,33,19,F,NA,variable,homogeneous,4,present,1.20356893539429,1,vertical,vertical,1,0.741172183643688,red,1,3,684.232422566416,827.206663668034,915.767577433584,372.793336331966,684.232422566416,827.206663668034,1027.20666366803,715.767577433584,915.767577433584,372.793336331966,572.793336331966,484.232422566416,0,0,0,0,4,0,0,0,NaN,NaN,vertical,vertical,vertical,horizontal,none,none
1c,16,100143,1,34,34,19,F,NA,variable,homogeneous,6,present,0.77723503112793,1,horizontal,horizontal,1,0.670586091821844,green,4,3,831.076682568313,346.900731331463,1034.72873763037,500.363562235235,768.923317431687,853.099268668537,1003.65205506206,753.462830903772,1034.72873763037,500.363562235235,831.076682568313,346.900731331463,596.34794493794,446.537169096228,565.271262369628,699.636437764765,0,0,0,4,0,0,vertical,horizontal,horizontal,horizontal,horizontal,vertical
1c,16,100143,1,35,35,19,F,NA,variable,homogeneous,5,absent,1.44034695625305,1,vertical,vertical,1,0.964694807746194,red,1,NaN,907.767656743878,831.108485694346,NaN,NaN,907.767656743878,831.108485694346,1053.09926866854,568.923317431687,848.656293821019,349.685068220846,576.971974679454,476.373546837184,613.504806087112,773.909581815937,0,0,4,0,0,0,0,NaN,vertical,horizontal,vertical,vertical,horizontal,none
1c,16,100143,1,36,36,19,F,NA,variable,homogeneous,4,absent,1.43428897857666,1,horizontal,horizontal,1,0.847051321376454,green,3,NaN,632.704947607421,407.549057043193,NaN,NaN,967.295052392579,792.450942956807,992.450942956807,432.704947607421,632.704947607421,407.549057043193,607.549057043193,767.295052392579,0,0,0,0,0,0,4,0,NaN,NaN,vertical,vertical,horizontal,horizontal,none,none
1c,16,100143,1,37,37,19,F,NA,variable,homogeneous,3,present,0.946674108505249,1,vertical,vertical,1,0.976459156383168,green,1,2,935.129412379467,816.252264519889,919.715248510402,374.848363820974,935.129412379467,816.252264519889,919.715248510402,374.848363820974,545.155339110131,608.899371659138,0,0,0,0,0,0,4,0,0,NaN,NaN,NaN,vertical,vertical,vertical,none,none,none
1c,16,100143,1,38,38,19,F,NA,variable,homogeneous,5,absent,0.961831092834473,0,horizontal,vertical,1,0.999987853657116,red,4,NaN,680.284751489598,374.848363820974,NaN,NaN,764.510859255183,852.518357529101,1029.19248180629,711.784642431215,977.137884467044,416.568350913644,680.284751489598,374.848363820974,548.874022981887,644.280285305067,0,0,0,0,0,4,0,NaN,vertical,vertical,horizontal,horizontal,vertical,none
1c,16,100143,1,39,39,19,F,NA,variable,homogeneous,5,absent,0.710191965103149,1,horizontal,horizontal,1,1.04704524820501,green,5,NaN,550.57236181288,546.982518841471,NaN,NaN,672.5,820.836477965032,970.628304621509,789.501930496736,1032.95409169886,496.282156015671,773.345241866748,346.39691668109,550.57236181288,546.982518841471,0,0,0,0,0,0,4,NaN,horizontal,vertical,horizontal,vertical,horizontal,none
1c,16,100143,1,40,40,19,F,NA,variable,homogeneous,4,absent,0.70975399017334,1,horizontal,horizontal,1,1.05880959684199,red,4,NaN,560.378381699593,687.215136548046,NaN,NaN,887.215136548046,839.621618300407,1039.62161830041,512.784863451954,712.784863451954,360.378381699593,560.378381699593,687.215136548046,0,0,0,0,0,0,0,4,NaN,NaN,vertical,vertical,horizontal,horizontal,none,none
1c,16,100143,1,41,41,19,F,NA,variable,homogeneous,6,present,0.892957925796509,1,horizontal,horizontal,1,0.635293045910922,green,4,1,861.690083377915,352.574589799621,738.309916622085,847.425410200379,738.309916622085,847.425410200379,983.431649086356,777.137884467044,1045.12173246427,529.712474266665,861.690083377915,352.574589799621,616.568350913644,422.862115532956,554.878267535729,670.287525733335,0,0,0,4,0,0,vertical,vertical,horizontal,horizontal,vertical,vertical
1c,16,100143,1,42,42,19,F,NA,variable,homogeneous,5,present,1.15067601203918,1,vertical,vertical,1,0.788229578191584,red,1,5,786.654331158049,854.650531362416,553.688914296288,665.998856501143,786.654331158049,854.650531362416,1038.06300875679,691.383827134052,960.476699717708,401.827779828472,661.117046071168,386.139005173917,553.688914296288,665.998856501143,0,0,4,0,0,0,0,NaN,vertical,vertical,horizontal,vertical,horizontal,none
1c,16,100143,1,43,43,19,F,NA,variable,homogeneous,5,present,1.10371112823486,0,horizontal,vertical,1,0.89410871592435,red,2,4,1053.09926866854,631.076682568313,613.504806087112,426.090418184063,848.656293821019,850.314931779154,1053.09926866854,631.076682568313,907.767656743878,368.891514305654,613.504806087112,426.090418184063,576.971974679454,723.626453162816,0,0,0,4,0,0,0,NaN,vertical,horizontal,horizontal,vertical,vertical,none
1c,16,100143,1,44,44,19,F,NA,variable,homogeneous,3,absent,1.98380994796753,0,horizontal,vertical,1,0.89410871592435,red,2,NaN,953.462830903772,396.34794493794,NaN,NaN,899.636437764765,834.728737630372,953.462830903772,396.34794493794,546.900731331463,568.923317431687,0,0,0,0,0,0,0,4,0,NaN,NaN,NaN,vertical,horizontal,horizontal,none,none,none
1c,16,100143,1,45,45,19,F,NA,variable,homogeneous,6,present,0.904830932617188,1,horizontal,horizontal,1,0.65882174318487,red,3,2,1051.86052685176,560.109211414741,960.476699717708,798.172220171528,708.616172865948,838.063008756786,960.476699717708,798.172220171528,1051.86052685176,560.109211414741,891.383827134052,361.936991243214,639.523300282292,401.827779828472,548.13947314824,639.890788585259,0,0,4,0,0,0,vertical,horizontal,horizontal,vertical,vertical,vertical
1c,16,100143,1,46,46,19,F,NA,variable,homogeneous,5,absent,NaN,0,horizontal,none,0,0.77646522955461,green,2,NaN,1048.46436652023,542.637481142314,NaN,NaN,931.334709102064,818.577661679039,1048.46436652023,542.637481142314,822.224714400653,345.970351986605,565.271262369628,500.363562235235,632.704947607421,792.450942956807,0,0,0,4,0,0,0,NaN,vertical,horizontal,horizontal,horizontal,vertical,none
1c,16,100143,1,47,47,19,F,NA,variable,homogeneous,4,absent,1.15576696395874,1,vertical,vertical,1,0.635293045910922,green,2,NaN,1053.60308331891,626.654758133252,NaN,NaN,773.345241866748,853.60308331891,1053.60308331891,626.654758133252,826.654758133252,346.39691668109,546.39691668109,573.345241866748,0,0,0,0,0,4,0,0,NaN,NaN,vertical,vertical,horizontal,horizontal,none,none
1c,16,100143,1,48,48,19,F,NA,variable,homogeneous,3,absent,0.705475091934204,1,vertical,vertical,1,0.917637413198298,red,2,NaN,1018.57766167904,468.665290897936,NaN,NaN,804.450363641507,854.96116226488,1018.57766167904,468.665290897936,576.971974679454,476.373546837184,0,0,0,0,0,0,0,4,0,NaN,NaN,NaN,vertical,vertical,vertical,none,none,none
1c,16,100143,1,49,49,19,F,NA,variable,homogeneous,3,absent,0.751172065734863,1,vertical,vertical,1,0.964694807746194,red,2,NaN,1054.0296480134,577.775285599347,NaN,NaN,692.232343256122,831.108485694346,1054.0296480134,577.775285599347,653.738008730483,391.116228706307,0,0,0,0,0,0,0,4,0,NaN,NaN,NaN,horizontal,vertical,horizontal,none,none,none
1c,16,100143,1,50,50,19,F,NA,variable,homogeneous,4,present,0.936120986938477,1,horizontal,horizontal,1,0.694114789095792,red,4,2,545.155339110131,608.899371659138,1054.84466088987,591.100628340862,808.899371659138,854.844660889869,1054.84466088987,591.100628340862,791.100628340862,345.155339110131,545.155339110131,608.899371659138,0,0,0,0,0,0,0,4,NaN,NaN,vertical,vertical,vertical,horizontal,none,none
1c,16,100143,1,51,51,19,F,NA,variable,homogeneous,3,present,0.567139863967896,1,horizontal,horizontal,1,0.611764348636974,red,3,1,550.57236181288,546.982518841471,878.799333565612,842.519411655264,878.799333565612,842.519411655264,970.628304621509,410.498069503264,550.57236181288,546.982518841471,0,0,0,0,0,0,0,0,4,NaN,NaN,NaN,vertical,horizontal,horizontal,none,none,none
1c,16,100143,1,52,52,19,F,NA,variable,homogeneous,3,absent,0.679257869720459,1,vertical,vertical,1,0.623528697273948,green,3,NaN,664.870587620533,383.747735480111,NaN,NaN,680.284751489598,825.151636179026,1054.84466088987,591.100628340862,664.870587620533,383.747735480111,0,0,0,0,0,0,0,0,4,NaN,NaN,NaN,vertical,horizontal,vertical,none,none,none
1c,16,100143,1,53,53,19,F,NA,variable,homogeneous,4,present,0.941062927246094,1,vertical,vertical,1,0.799993926828558,red,4,2,545.155339110131,591.100628340862,1054.84466088987,608.899371659138,791.100628340862,854.844660889869,1054.84466088987,608.899371659138,808.899371659138,345.155339110131,545.155339110131,591.100628340862,0,0,0,0,0,0,0,4,NaN,NaN,vertical,vertical,horizontal,vertical,none,none
1c,16,100143,1,54,54,19,F,NA,variable,homogeneous,6,absent,0.613476037979126,1,horizontal,horizontal,1,1.07057394547896,green,4,NaN,742.637481142314,351.535633479765,NaN,NaN,857.362518857686,848.464366520235,1043.85771277057,674.554784704298,986.495193912888,426.090418184063,742.637481142314,351.535633479765,556.142287229426,525.445215295702,613.504806087112,773.909581815937,0,0,0,4,0,0,horizontal,horizontal,vertical,horizontal,vertical,horizontal
1c,16,100143,1,55,55,19,F,NA,variable,homogeneous,5,absent,0.945785045623779,1,vertical,vertical,1,1.01175220229409,red,1,NaN,903.717843984329,832.954091698863,NaN,NaN,903.717843984329,832.954091698863,1053.60308331891,573.345241866748,853.017481158529,350.57236181288,579.163522034968,472.5,610.498069503264,770.628304621509,0,0,4,0,0,0,0,NaN,vertical,vertical,horizontal,horizontal,vertical,none
1c,16,100143,1,56,56,19,F,NA,variable,homogeneous,4,absent,0.684536933898926,1,horizontal,horizontal,1,0.764700880917636,red,1,NaN,684.232422566416,827.206663668034,NaN,NaN,684.232422566416,827.206663668034,1027.20666366803,715.767577433584,915.767577433584,372.793336331966,572.793336331966,484.232422566416,0,0,0,0,4,0,0,0,NaN,NaN,horizontal,vertical,horizontal,horizontal,none,none
1c,16,100143,1,57,57,19,F,NA,variable,homogeneous,4,present,1.29260206222534,1,horizontal,horizontal,1,0.905873064561324,green,1,2,626.090418184063,786.495193912888,986.495193912888,773.909581815937,626.090418184063,786.495193912888,986.495193912888,773.909581815937,973.909581815937,413.504806087112,613.504806087112,426.090418184063,0,0,0,0,4,0,0,0,NaN,NaN,horizontal,vertical,horizontal,vertical,none,none
1c,16,100143,1,58,58,19,F,NA,variable,homogeneous,3,present,0.632914066314697,1,horizontal,horizontal,1,0.917637413198298,green,3,2,742.637481142314,351.535633479765,1043.85771277057,674.554784704298,613.504806087112,773.909581815937,1043.85771277057,674.554784704298,742.637481142314,351.535633479765,0,0,0,0,0,0,0,0,4,NaN,NaN,NaN,vertical,vertical,horizontal,none,none,none
1c,16,100143,1,59,59,19,F,NA,variable,homogeneous,4,present,0.679496049880981,1,vertical,vertical,1,1.09410264275291,green,3,2,977.137884467044,416.568350913644,983.431649086356,777.137884467044,622.862115532956,783.431649086356,983.431649086356,777.137884467044,977.137884467044,416.568350913644,616.568350913644,422.862115532956,0,0,0,0,0,0,4,0,NaN,NaN,horizontal,horizontal,vertical,vertical,none,none
1c,16,100143,1,60,60,19,F,NA,variable,homogeneous,5,absent,0.862818956375122,1,vertical,vertical,1,1.07057394547896,green,1,NaN,883.019879386575,841.107236777826,NaN,NaN,883.019879386575,841.107236777826,1054.96116226488,595.549636358493,874.554784704298,356.142287229426,591.116228706307,453.738008730483,596.34794493794,753.462830903772,0,0,4,0,0,0,0,NaN,vertical,horizontal,horizontal,vertical,vertical,none
1c,16,100143,1,61,61,19,F,NA,variable,homogeneous,3,absent,0.689948081970215,1,horizontal,horizontal,1,1.09410264275291,red,3,NaN,636.089159529932,404.658667004661,NaN,NaN,712.784863451954,839.621618300407,1051.12597701811,555.719714694933,636.089159529932,404.658667004661,0,0,0,0,0,0,0,0,4,NaN,NaN,NaN,horizontal,vertical,horizontal,none,none,none
1c,16,100143,1,62,62,19,F,NA,variable,homogeneous,6,present,0.772821187973022,1,vertical,vertical,1,1.04704524820501,red,2,4,1043.85771277057,674.554784704298,742.637481142314,351.535633479765,857.362518857686,848.464366520235,1043.85771277057,674.554784704298,986.495193912888,426.090418184063,742.637481142314,351.535633479765,556.142287229426,525.445215295702,613.504806087112,773.909581815937,0,4,0,0,0,0,horizontal,vertical,horizontal,vertical,vertical,vertical
1c,16,100143,1,63,63,19,F,NA,variable,homogeneous,6,absent,0.784590005874634,1,vertical,vertical,1,0.811758275465532,green,5,NaN,591.116228706307,453.738008730483,NaN,NaN,777.775285599347,854.029648013395,1008.88377129369,746.261991269517,1031.10848569435,492.232343256122,822.224714400653,345.970351986605,591.116228706307,453.738008730483,568.891514305654,707.767656743878,0,0,0,0,4,0,vertical,vertical,horizontal,horizontal,vertical,horizontal
1c,16,100143,1,64,64,19,F,NA,variable,homogeneous,5,absent,0.846735000610352,1,horizontal,horizontal,1,0.71764348636974,red,1,NaN,700.363562235235,834.728737630372,NaN,NaN,700.363562235235,834.728737630372,992.450942956807,767.295052392579,1018.57766167904,468.665290897936,742.637481142314,351.535633479765,545.970351986605,577.775285599347,0,0,4,0,0,0,0,NaN,horizontal,vertical,vertical,vertical,vertical,none
1c,16,100143,2,1,65,19,F,NA,variable,homogeneous,3,present,0.788814067840576,1,horizontal,horizontal,1,0.611764348636974,green,3,1,604.658667004661,436.089159529932,755.719714694933,851.125977018113,755.719714694933,851.125977018113,1039.62161830041,512.784863451954,604.658667004661,436.089159529932,0,0,0,0,0,0,0,0,4,NaN,NaN,NaN,horizontal,vertical,horizontal,none,none,none
1c,16,100143,2,2,66,19,F,NA,variable,homogeneous,4,present,0.572451114654541,1,horizontal,horizontal,1,0.77646522955461,red,4,2,548.874022981887,555.719714694933,1051.12597701811,644.280285305067,755.719714694933,851.125977018113,1051.12597701811,644.280285305067,844.280285305067,348.874022981887,548.874022981887,555.719714694933,0,0,0,0,0,0,0,4,NaN,NaN,horizontal,horizontal,horizontal,horizontal,none,none
1c,16,100143,2,3,67,19,F,NA,variable,homogeneous,4,absent,0.647779941558838,1,vertical,vertical,1,0.788229578191584,red,2,NaN,1025.15163617903,719.715248510402,NaN,NaN,680.284751489598,825.151636179026,1025.15163617903,719.715248510402,919.715248510402,374.848363820974,574.848363820974,480.284751489598,0,0,0,0,0,4,0,0,NaN,NaN,horizontal,vertical,horizontal,horizontal,none,none
1c,16,100143,2,4,68,19,F,NA,variable,homogeneous,3,absent,0.612786054611206,1,horizontal,horizontal,1,0.799993926828558,green,2,NaN,865.998856501143,353.688914296288,NaN,NaN,980.31222920257,780.31222920257,865.998856501143,353.688914296288,553.688914296288,665.998856501143,0,0,0,0,0,0,0,4,0,NaN,NaN,NaN,horizontal,horizontal,vertical,none,none,none
1c,16,100143,2,5,69,19,F,NA,variable,homogeneous,6,absent,0.63083815574646,1,vertical,vertical,1,1.07057394547896,green,3,NaN,1036.43188291453,504.475318678942,NaN,NaN,764.510859255183,852.518357529101,1000.94274216971,756.993676208043,1036.43188291453,504.475318678942,835.489140744817,347.4816424709,599.057257830286,443.006323791957,563.568117085469,695.524681321058,0,0,4,0,0,0,horizontal,horizontal,vertical,vertical,vertical,vertical
1c,16,100143,2,6,70,19,F,NA,variable,homogeneous,4,absent,0.669353008270264,1,vertical,vertical,1,0.89410871592435,red,3,NaN,626.090418184063,413.504806087112,NaN,NaN,973.909581815937,786.495193912888,986.495193912888,426.090418184063,626.090418184063,413.504806087112,613.504806087112,773.909581815937,0,0,0,0,0,0,4,0,NaN,NaN,horizontal,vertical,vertical,vertical,none,none
1c,16,100143,2,7,71,19,F,NA,variable,homogeneous,3,absent,0.650672912597656,1,vertical,vertical,1,0.77646522955461,red,3,NaN,574.848363820974,719.715248510402,NaN,NaN,1016.25226451989,735.129412379467,808.899371659138,345.155339110131,574.848363820974,719.715248510402,0,0,0,0,0,0,0,0,4,NaN,NaN,NaN,vertical,horizontal,vertical,none,none,none
1c,16,100143,2,8,72,19,F,NA,variable,homogeneous,5,absent,1.17967700958252,1,horizontal,horizontal,1,0.988223505020142,red,1,NaN,835.489140744817,852.518357529101,NaN,NaN,835.489140744817,852.518357529101,1051.12597701811,644.280285305067,919.715248510402,374.848363820974,622.862115532956,416.568350913644,570.807518193712,711.784642431215,0,0,4,0,0,0,0,NaN,horizontal,horizontal,vertical,horizontal,horizontal,none
1c,16,100143,2,9,73,19,F,NA,variable,homogeneous,6,present,0.741067886352539,1,vertical,vertical,1,0.882344367287376,red,1,5,786.654331158049,854.650531362416,586.139005173917,461.117046071168,786.654331158049,854.650531362416,1013.86099482608,738.882953928832,1027.20666366803,484.232422566416,813.345668841951,345.349468637584,586.139005173917,461.117046071168,572.793336331966,715.767577433584,4,0,0,0,0,0,vertical,horizontal,horizontal,horizontal,horizontal,vertical
1c,16,100143,2,10,74,19,F,NA,variable,homogeneous,6,absent,0.878491163253784,1,vertical,vertical,1,0.917637413198298,green,5,NaN,567.045908301137,496.282156015671,NaN,NaN,826.654758133252,853.60308331891,1032.95409169886,703.717843984329,1006.29933356561,450.114760665419,773.345241866748,346.39691668109,567.045908301137,496.282156015671,593.700666434388,749.885239334581,0,0,0,0,4,0,horizontal,vertical,vertical,horizontal,vertical,vertical
1c,16,100143,2,11,75,19,F,NA,variable,homogeneous,5,absent,0.492741107940674,1,vertical,vertical,1,1.02351655093106,green,4,NaN,708.616172865948,361.936991243214,NaN,NaN,734.001143498857,846.311085703712,1013.86099482608,738.882953928832,998.172220171528,439.523300282291,708.616172865948,361.936991243214,545.349468637584,613.345668841951,0,0,0,0,0,4,0,NaN,vertical,vertical,vertical,vertical,horizontal,none
1c,16,100143,2,12,76,19,F,NA,variable,homogeneous,4,absent,0.615106821060181,1,horizontal,horizontal,1,0.811758275465532,red,2,NaN,983.431649086356,422.862115532956,NaN,NaN,977.137884467044,783.431649086356,983.431649086356,422.862115532956,622.862115532956,416.568350913644,616.568350913644,777.137884467044,0,0,0,0,0,4,0,0,NaN,NaN,horizontal,horizontal,vertical,horizontal,none,none
1c,16,100143,2,13,77,19,F,NA,variable,homogeneous,6,absent,0.701122999191284,1,horizontal,horizontal,1,0.682350440458818,red,1,NaN,927.5,820.836477965032,NaN,NaN,927.5,820.836477965032,1055,600,927.5,379.163522034968,672.5,379.163522034968,545,600,672.5,820.836477965032,4,0,0,0,0,0,horizontal,horizontal,vertical,vertical,horizontal,horizontal
1c,16,100143,2,14,78,19,F,NA,variable,homogeneous,3,absent,0.708329916000366,1,vertical,vertical,1,1.04704524820501,green,1,NaN,989.501930496736,770.628304621509,NaN,NaN,989.501930496736,770.628304621509,853.017481158529,350.57236181288,557.480588344736,678.799333565612,0,0,0,0,0,0,4,0,0,NaN,NaN,NaN,vertical,vertical,vertical,none,none,none
1c,16,100143,2,15,79,19,F,NA,variable,homogeneous,4,absent,0.885972023010254,1,vertical,vertical,1,0.752936532280662,green,3,NaN,672.5,379.163522034968,NaN,NaN,927.5,820.836477965032,1020.83647796503,472.5,672.5,379.163522034968,579.163522034968,727.5,0,0,0,0,0,0,4,0,NaN,NaN,horizontal,horizontal,vertical,horizontal,none,none
1c,16,100143,2,16,80,19,F,NA,variable,homogeneous,5,absent,0.733316898345947,1,vertical,vertical,1,0.682350440458818,red,3,NaN,953.462830903772,396.34794493794,NaN,NaN,795.549636358493,854.96116226488,1041.10723677783,683.019879386575,953.462830903772,396.34794493794,653.738008730483,391.116228706307,556.142287229426,674.554784704298,0,0,0,0,4,0,0,NaN,vertical,vertical,vertical,vertical,vertical,none
1c,16,100143,2,17,81,19,F,NA,variable,homogeneous,6,absent,0.831341981887817,1,horizontal,horizontal,1,0.95293045910922,red,4,NaN,865.998856501143,353.688914296288,NaN,NaN,734.001143498857,846.311085703712,980.31222920257,780.31222920257,1046.31108570371,534.001143498857,865.998856501143,353.688914296288,619.68777079743,419.68777079743,553.688914296288,665.998856501143,0,0,0,4,0,0,horizontal,horizontal,vertical,horizontal,horizontal,vertical
1c,16,100143,2,18,82,19,F,NA,variable,homogeneous,4,absent,0.663048982620239,1,horizontal,horizontal,1,0.741172183643688,green,3,NaN,931.334709102064,381.422338320961,NaN,NaN,668.665290897936,818.577661679039,1018.57766167904,731.334709102064,931.334709102064,381.422338320961,581.422338320961,468.665290897936,0,0,0,0,0,0,4,0,NaN,NaN,vertical,horizontal,horizontal,vertical,none,none
1c,16,100143,2,19,83,19,F,NA,variable,homogeneous,5,present,0.530302047729492,1,vertical,vertical,1,1.09410264275291,red,4,5,764.510859255183,347.4816424709,548.874022981887,555.719714694933,680.284751489598,825.151636179026,977.137884467044,783.431649086356,1029.19248180629,488.215357568785,764.510859255183,347.4816424709,548.874022981887,555.719714694933,0,0,0,0,0,4,0,NaN,vertical,vertical,vertical,vertical,vertical,none
1c,16,100143,2,20,84,19,F,NA,variable,homogeneous,4,present,1.03901696205139,1,vertical,vertical,1,0.694114789095792,red,4,1,576.971974679454,476.373546837184,676.373546837184,823.028025320546,676.373546837184,823.028025320546,1023.02802532055,723.626453162816,923.626453162816,376.971974679454,576.971974679454,476.373546837184,0,0,0,0,0,0,0,4,NaN,NaN,vertical,vertical,horizontal,vertical,none,none
1c,16,100143,2,21,85,19,F,NA,variable,homogeneous,4,present,0.471328020095825,1,horizontal,horizontal,1,0.976459156383168,red,3,4,970.628304621509,410.498069503264,610.498069503264,429.371695378491,629.371695378491,789.501930496736,989.501930496736,770.628304621509,970.628304621509,410.498069503264,610.498069503264,429.371695378491,0,0,0,0,0,0,4,0,NaN,NaN,vertical,horizontal,horizontal,horizontal,none,none
1c,16,100143,2,22,86,19,F,NA,variable,homogeneous,3,present,0.676149129867554,1,vertical,vertical,1,0.752936532280662,green,3,2,561.936991243214,508.616172865948,998.172220171528,439.523300282291,839.890788585259,851.86052685176,998.172220171528,439.523300282291,561.936991243214,508.616172865948,0,0,0,0,0,0,0,0,4,NaN,NaN,NaN,horizontal,horizontal,vertical,none,none,none
1c,16,100143,2,23,87,19,F,NA,variable,homogeneous,3,absent,1.07623410224915,1,vertical,vertical,1,0.917637413198298,red,3,NaN,565.271262369628,699.636437764765,NaN,NaN,1003.65205506206,753.462830903772,831.076682568313,346.900731331463,565.271262369628,699.636437764765,0,0,0,0,0,0,0,0,4,NaN,NaN,NaN,vertical,vertical,vertical,none,none,none
1c,16,100143,2,24,88,19,F,NA,variable,homogeneous,5,absent,0.921072959899902,1,vertical,vertical,1,0.752936532280662,green,5,NaN,601.827779828472,760.476699717708,NaN,NaN,891.383827134052,838.063008756786,1054.65053136242,586.654331158049,865.998856501143,353.688914296288,586.139005173917,461.117046071168,601.827779828472,760.476699717708,0,0,0,0,0,0,4,NaN,horizontal,vertical,horizontal,vertical,vertical,none
1c,16,100143,2,25,89,19,F,NA,variable,homogeneous,3,present,0.752706050872803,1,vertical,vertical,1,0.647057394547896,green,1,2,935.129412379467,816.252264519889,919.715248510402,374.848363820974,935.129412379467,816.252264519889,919.715248510402,374.848363820974,545.155339110131,608.899371659138,0,0,0,0,0,0,4,0,0,NaN,NaN,NaN,vertical,vertical,horizontal,none,none,none
1c,16,100143,2,26,90,19,F,NA,variable,homogeneous,3,present,0.733314990997314,1,horizontal,horizontal,1,0.870580018650402,red,1,2,953.462830903772,803.65205506206,899.636437764765,365.271262369628,953.462830903772,803.65205506206,899.636437764765,365.271262369628,546.900731331463,631.076682568313,0,0,0,0,0,0,4,0,0,NaN,NaN,NaN,horizontal,vertical,vertical,none,none,none
1c,16,100143,2,27,91,19,F,NA,variable,homogeneous,4,present,0.680144071578979,1,vertical,vertical,1,0.799993926828558,green,4,1,556.142287229426,525.445215295702,725.445215295702,843.857712770574,725.445215295702,843.857712770574,1043.85771277057,674.554784704298,874.554784704298,356.142287229426,556.142287229426,525.445215295702,0,0,0,0,0,0,0,4,NaN,NaN,horizontal,vertical,horizontal,vertical,none,none
1c,16,100143,2,28,92,19,F,NA,variable,homogeneous,5,absent,0.63652515411377,1,vertical,vertical,1,0.929401761835272,red,5,NaN,632.704947607421,792.450942956807,NaN,NaN,931.334709102064,818.577661679039,1048.46436652023,542.637481142314,822.224714400653,345.970351986605,565.271262369628,500.363562235235,632.704947607421,792.450942956807,0,0,0,0,0,0,4,NaN,vertical,horizontal,vertical,vertical,vertical,none
1c,16,100143,2,29,93,19,F,NA,variable,homogeneous,3,absent,0.510267972946167,1,vertical,vertical,1,1.04704524820501,green,1,NaN,782.212099195248,854.378832816255,NaN,NaN,782.212099195248,854.378832816255,1029.19248180629,488.215357568785,588.595418998464,457.40580961496,0,0,0,0,0,0,4,0,0,NaN,NaN,NaN,vertical,vertical,horizontal,none,none,none
1c,16,100143,2,30,94,19,F,NA,variable,homogeneous,6,present,0.789510011672974,1,horizontal,horizontal,1,0.83528697273948,green,5,2,565.271262369628,500.363562235235,1034.72873763037,699.636437764765,831.076682568313,853.099268668537,1034.72873763037,699.636437764765,1003.65205506206,446.537169096228,768.923317431687,346.900731331463,565.271262369628,500.363562235235,596.34794493794,753.462830903772,0,0,0,0,4,0,horizontal,vertical,vertical,horizontal,horizontal,horizontal
1c,16,100143,2,31,95,19,F,NA,variable,homogeneous,4,present,0.930611133575439,0,vertical,horizontal,1,1.05880959684199,green,1,3,696.282156015671,832.954091698863,903.717843984329,367.045908301137,696.282156015671,832.954091698863,1032.95409169886,703.717843984329,903.717843984329,367.045908301137,567.045908301137,496.282156015671,0,0,0,0,4,0,0,0,NaN,NaN,vertical,vertical,horizontal,vertical,none,none
1c,16,100143,2,32,96,19,F,NA,variable,homogeneous,5,present,0.691606044769287,0,vertical,horizontal,1,0.705879137732766,green,5,4,552.574589799621,538.309916622085,782.212099195248,345.621167183745,664.870587620533,816.252264519889,963.910840470068,795.341332995339,1036.43188291453,504.475318678942,782.212099195248,345.621167183745,552.574589799621,538.309916622085,0,0,0,0,0,0,4,NaN,vertical,horizontal,vertical,horizontal,vertical,none
1c,16,100143,2,33,97,19,F,NA,variable,homogeneous,6,present,0.640538930892944,1,vertical,vertical,1,0.941166110472246,green,6,3,549.685068220846,648.656293821019,1050.31493177915,551.343706178981,716.980120613425,841.107236777826,967.295052392579,792.450942956807,1050.31493177915,551.343706178981,883.019879386575,358.892763222174,632.704947607421,407.549057043193,549.685068220846,648.656293821019,0,0,0,0,0,4,horizontal,horizontal,horizontal,vertical,vertical,vertical
1c,16,100143,2,34,98,19,F,NA,variable,homogeneous,5,present,0.973177909851074,1,horizontal,horizontal,1,0.988223505020142,red,1,2,786.654331158049,854.650531362416,1038.06300875679,691.383827134052,786.654331158049,854.650531362416,1038.06300875679,691.383827134052,960.476699717708,401.827779828472,661.117046071168,386.139005173917,553.688914296288,665.998856501143,0,0,4,0,0,0,0,NaN,horizontal,vertical,horizontal,vertical,vertical,none
1c,16,100143,2,35,99,19,F,NA,variable,homogeneous,6,present,NaN,0,horizontal,none,0,0.870580018650402,red,3,2,1011.40458100154,457.40580961496,1029.19248180629,711.784642431215,817.787900804752,854.378832816255,1029.19248180629,711.784642431215,1011.40458100154,457.40580961496,782.212099195248,345.621167183745,570.807518193712,488.215357568785,588.595418998464,742.594190385041,0,0,4,0,0,0,horizontal,horizontal,horizontal,horizontal,vertical,vertical
1c,16,100143,2,36,100,19,F,NA,variable,homogeneous,6,absent,0.897035121917725,1,vertical,vertical,1,0.729407835006714,red,3,NaN,989.501930496736,429.371695378491,NaN,NaN,853.017481158529,849.42763818712,1042.51941165526,678.799333565612,989.501930496736,429.371695378491,746.982518841471,350.57236181288,557.480588344736,521.200666434388,610.498069503264,770.628304621509,0,0,4,0,0,0,horizontal,vertical,vertical,horizontal,vertical,vertical
1c,16,100143,2,37,101,19,F,NA,variable,homogeneous,6,present,0.865069150924683,1,vertical,vertical,1,0.694114789095792,red,4,2,700.363562235235,365.271262369628,1053.09926866854,631.076682568313,899.636437764765,834.728737630372,1053.09926866854,631.076682568313,953.462830903772,396.34794493794,700.363562235235,365.271262369628,546.900731331463,568.923317431687,646.537169096228,803.65205506206,0,0,0,4,0,0,horizontal,vertical,vertical,vertical,vertical,horizontal
1c,16,100143,2,38,102,19,F,NA,variable,homogeneous,3,present,1.06030082702637,1,horizontal,horizontal,1,0.694114789095792,red,1,3,664.870587620533,816.252264519889,680.284751489598,374.848363820974,664.870587620533,816.252264519889,1054.84466088987,608.899371659138,680.284751489598,374.848363820974,0,0,0,0,0,0,4,0,0,NaN,NaN,NaN,horizontal,vertical,horizontal,none,none,none
1c,16,100143,2,39,103,19,F,NA,variable,homogeneous,5,present,0.914098978042603,1,horizontal,horizontal,1,0.611764348636974,red,1,2,760.109211414741,851.86052685176,1027.20666366803,715.767577433584,760.109211414741,851.86052685176,1027.20666366803,715.767577433584,980.31222920257,419.68777079743,684.232422566416,372.793336331966,548.13947314824,639.890788585259,0,0,4,0,0,0,0,NaN,horizontal,horizontal,horizontal,vertical,horizontal,none
1c,16,100143,2,40,104,19,F,NA,variable,homogeneous,6,present,0.748948097229004,0,horizontal,vertical,1,1.02351655093106,green,2,3,1027.20666366803,715.767577433584,1013.86099482608,461.117046071168,813.345668841951,854.650531362416,1027.20666366803,715.767577433584,1013.86099482608,461.117046071168,786.654331158049,345.349468637584,572.793336331966,484.232422566416,586.139005173917,738.882953928832,0,4,0,0,0,0,vertical,horizontal,vertical,vertical,vertical,vertical
1c,16,100143,2,41,105,19,F,NA,variable,homogeneous,4,present,1.01664996147156,1,horizontal,horizontal,1,0.83528697273948,green,3,4,899.636437764765,365.271262369628,565.271262369628,500.363562235235,700.363562235235,834.728737630372,1034.72873763037,699.636437764765,899.636437764765,365.271262369628,565.271262369628,500.363562235235,0,0,0,0,0,0,4,0,NaN,NaN,horizontal,horizontal,horizontal,horizontal,none,none
1c,16,100143,2,42,106,19,F,NA,variable,homogeneous,5,absent,0.857669830322266,1,horizontal,horizontal,1,1.02351655093106,green,1,NaN,831.076682568313,853.099268668537,NaN,NaN,831.076682568313,853.099268668537,1050.31493177915,648.656293821019,923.626453162816,376.971974679454,626.090418184063,413.504806087112,568.891514305654,707.767656743878,0,0,4,0,0,0,0,NaN,horizontal,vertical,horizontal,vertical,vertical,none
1c,16,100143,2,43,107,19,F,NA,variable,homogeneous,5,absent,0.76698899269104,1,horizontal,horizontal,1,0.788229578191584,green,2,NaN,1052.5183575291,564.510859255183,NaN,NaN,911.784642431215,829.192481806288,1052.5183575291,564.510859255183,844.280285305067,348.874022981887,574.848363820974,480.284751489598,616.568350913644,777.137884467044,0,0,0,4,0,0,0,NaN,horizontal,horizontal,vertical,vertical,horizontal,none
1c,16,100143,2,44,108,19,F,NA,variable,homogeneous,4,absent,0.703889846801758,1,horizontal,horizontal,1,0.870580018650402,red,3,NaN,646.537169096228,396.34794493794,NaN,NaN,953.462830903772,803.65205506206,1003.65205506206,446.537169096228,646.537169096228,396.34794493794,596.34794493794,753.462830903772,0,0,0,0,0,0,4,0,NaN,NaN,vertical,vertical,horizontal,vertical,none,none
1c,16,100143,2,45,109,19,F,NA,variable,homogeneous,6,absent,0.760966062545776,1,horizontal,horizontal,1,0.741172183643688,green,5,NaN,556.142287229426,525.445215295702,NaN,NaN,857.362518857686,848.464366520235,1043.85771277057,674.554784704298,986.495193912888,426.090418184063,742.637481142314,351.535633479765,556.142287229426,525.445215295702,613.504806087112,773.909581815937,0,0,0,0,4,0,horizontal,vertical,vertical,horizontal,horizontal,vertical
1c,16,100143,2,46,110,19,F,NA,variable,homogeneous,3,present,1.23527812957764,1,vertical,vertical,1,0.95293045910922,red,2,3,1052.5183575291,564.510859255183,643.006323791957,399.057257830286,704.475318678942,836.431882914531,1052.5183575291,564.510859255183,643.006323791957,399.057257830286,0,0,0,0,0,0,0,4,0,NaN,NaN,NaN,horizontal,vertical,horizontal,none,none,none
1c,16,100143,2,47,111,19,F,NA,variable,homogeneous,6,present,1.29889106750488,1,vertical,vertical,1,0.929401761835272,green,2,3,1051.86052685176,639.890788585259,960.476699717708,401.827779828472,891.383827134052,838.063008756786,1051.86052685176,639.890788585259,960.476699717708,401.827779828472,708.616172865948,361.936991243214,548.13947314824,560.109211414741,639.523300282292,798.172220171528,0,4,0,0,0,0,vertical,vertical,horizontal,vertical,horizontal,vertical
1c,16,100143,2,48,112,19,F,NA,variable,homogeneous,5,present,0.89236307144165,1,vertical,vertical,1,0.764700880917636,red,1,2,751.343706178981,850.314931779154,1023.02802532055,723.626453162816,751.343706178981,850.314931779154,1023.02802532055,723.626453162816,986.495193912888,426.090418184063,692.232343256122,368.891514305654,546.900731331463,631.076682568313,0,0,4,0,0,0,0,NaN,vertical,horizontal,vertical,horizontal,vertical,none
1c,16,100143,2,49,113,19,F,NA,variable,homogeneous,6,absent,0.564167976379395,1,vertical,vertical,1,0.682350440458818,red,5,NaN,601.827779828472,439.523300282291,NaN,NaN,760.109211414741,851.86052685176,998.172220171528,760.476699717708,1038.06300875679,508.616172865948,839.890788585259,348.13947314824,601.827779828472,439.523300282291,561.936991243214,691.383827134052,0,0,0,0,4,0,horizontal,horizontal,horizontal,vertical,vertical,vertical
1c,16,100143,2,50,114,19,F,NA,variable,homogeneous,5,absent,0.821843147277832,1,horizontal,horizontal,1,0.71764348636974,red,2,NaN,1006.29933356561,749.885239334581,NaN,NaN,721.200666434388,842.519411655264,1006.29933356561,749.885239334581,1006.29933356561,450.114760665419,721.200666434388,357.480588344736,545,600,0,0,0,4,0,0,0,NaN,horizontal,horizontal,horizontal,horizontal,horizontal,none
1c,16,100143,2,51,115,19,F,NA,variable,homogeneous,3,absent,0.994097948074341,1,horizontal,horizontal,1,0.988223505020142,red,3,NaN,572.793336331966,484.232422566416,NaN,NaN,813.345668841951,854.650531362416,1013.86099482608,461.117046071168,572.793336331966,484.232422566416,0,0,0,0,0,0,0,0,4,NaN,NaN,NaN,horizontal,vertical,horizontal,none,none,none
1c,16,100143,2,52,116,19,F,NA,variable,homogeneous,3,absent,0.752973079681396,1,horizontal,horizontal,1,0.729407835006714,red,3,NaN,643.006323791957,399.057257830286,NaN,NaN,704.475318678942,836.431882914531,1052.5183575291,564.510859255183,643.006323791957,399.057257830286,0,0,0,0,0,0,0,0,4,NaN,NaN,NaN,horizontal,horizontal,horizontal,none,none,none
1c,16,100143,2,53,117,19,F,NA,variable,homogeneous,4,absent,0.664321899414062,1,horizontal,horizontal,1,0.811758275465532,green,3,NaN,800,345,NaN,NaN,800,855,1055,600,800,345,545,600,0,0,0,0,0,0,4,0,NaN,NaN,horizontal,horizontal,horizontal,horizontal,none,none
1c,16,100143,2,54,118,19,F,NA,variable,homogeneous,6,absent,0.723712921142578,1,horizontal,horizontal,1,0.917637413198298,green,5,NaN,579.163522034968,472.5,NaN,NaN,800,855,1020.83647796503,727.5,1020.83647796503,472.5,800,345,579.163522034968,472.5,579.163522034968,727.5,0,0,0,0,4,0,horizontal,horizontal,horizontal,horizontal,horizontal,vertical
1c,16,100143,2,55,119,19,F,NA,variable,homogeneous,5,present,0.71696400642395,1,horizontal,horizontal,1,0.71764348636974,green,2,5,1041.10723677783,683.019879386575,556.142287229426,674.554784704298,795.549636358493,854.96116226488,1041.10723677783,683.019879386575,953.462830903772,396.34794493794,653.738008730483,391.116228706307,556.142287229426,674.554784704298,0,0,0,4,0,0,0,NaN,horizontal,horizontal,vertical,horizontal,vertical,none
1c,16,100143,2,56,120,19,F,NA,variable,homogeneous,3,absent,0.456881999969482,1,horizontal,horizontal,1,0.858815670013428,green,3,NaN,549.685068220846,551.343706178981,NaN,NaN,883.019879386575,841.107236777826,967.295052392579,407.549057043193,549.685068220846,551.343706178981,0,0,0,0,0,0,0,0,4,NaN,NaN,NaN,vertical,vertical,horizontal,none,none,none
1c,16,100143,2,57,121,19,F,NA,variable,homogeneous,3,present,0.692878007888794,1,horizontal,horizontal,1,0.729407835006714,green,1,2,626.090418184063,786.495193912888,1048.46436652023,657.362518857686,626.090418184063,786.495193912888,1048.46436652023,657.362518857686,725.445215295702,356.142287229426,0,0,0,0,0,0,4,0,0,NaN,NaN,NaN,horizontal,vertical,vertical,none,none,none
1c,16,100143,2,58,122,19,F,NA,variable,homogeneous,4,absent,0.916739940643311,1,vertical,vertical,1,0.89410871592435,green,1,NaN,848.656293821019,850.314931779154,NaN,NaN,848.656293821019,850.314931779154,1050.31493177915,551.343706178981,751.343706178981,349.685068220846,549.685068220846,648.656293821019,0,0,0,0,4,0,0,0,NaN,NaN,vertical,horizontal,vertical,vertical,none,none
1c,16,100143,2,59,123,19,F,NA,variable,homogeneous,6,present,1.16575980186462,0,horizontal,vertical,1,0.917637413198298,red,6,4,552.574589799621,661.690083377915,870.287525733335,354.878267535729,729.712474266665,845.121732464271,977.137884467044,783.431649086356,1047.42541020038,538.309916622085,870.287525733335,354.878267535729,622.862115532956,416.568350913644,552.574589799621,661.690083377915,0,0,0,0,0,4,horizontal,vertical,horizontal,horizontal,horizontal,horizontal
1c,16,100143,2,60,124,19,F,NA,variable,homogeneous,3,present,0.955304145812988,1,vertical,vertical,1,0.905873064561324,red,1,2,1003.65205506206,753.462830903772,831.076682568313,346.900731331463,1003.65205506206,753.462830903772,831.076682568313,346.900731331463,565.271262369628,699.636437764765,0,0,0,0,0,0,4,0,0,NaN,NaN,NaN,vertical,vertical,horizontal,none,none,none
1c,16,100143,2,61,125,19,F,NA,variable,homogeneous,4,present,1.0585560798645,0,horizontal,vertical,1,1.01175220229409,green,2,1,989.501930496736,770.628304621509,629.371695378491,789.501930496736,629.371695378491,789.501930496736,989.501930496736,770.628304621509,970.628304621509,410.498069503264,610.498069503264,429.371695378491,0,0,0,0,0,4,0,0,NaN,NaN,vertical,horizontal,horizontal,horizontal,none,none
1c,16,100143,2,62,126,19,F,NA,variable,homogeneous,5,present,0.848153829574585,1,vertical,vertical,1,0.788229578191584,green,5,4,548.874022981887,555.719714694933,764.510859255183,347.4816424709,680.284751489598,825.151636179026,977.137884467044,783.431649086356,1029.19248180629,488.215357568785,764.510859255183,347.4816424709,548.874022981887,555.719714694933,0,0,0,0,0,0,4,NaN,vertical,vertical,vertical,horizontal,vertical,none
1c,16,100143,2,63,127,19,F,NA,variable,homogeneous,4,present,0.635145902633667,1,vertical,vertical,1,1.08233829411593,red,4,1,557.480588344736,521.200666434388,721.200666434388,842.519411655264,721.200666434388,842.519411655264,1042.51941165526,678.799333565612,878.799333565612,357.480588344736,557.480588344736,521.200666434388,0,0,0,0,0,0,0,4,NaN,NaN,horizontal,horizontal,horizontal,vertical,none,none
1c,16,100143,2,64,128,19,F,NA,variable,homogeneous,5,present,0.756618976593018,1,horizontal,horizontal,1,0.623528697273948,green,1,5,946.261991269517,808.883771293693,646.537169096228,803.65205506206,946.261991269517,808.883771293693,1043.85771277057,525.445215295702,804.450363641507,345.03883773512,558.892763222174,516.980120613425,646.537169096228,803.65205506206,0,0,4,0,0,0,0,NaN,horizontal,vertical,vertical,horizontal,vertical,none
1c,16,100143,3,1,129,19,F,NA,variable,homogeneous,6,absent,0.86003589630127,1,horizontal,horizontal,1,0.71764348636974,green,1,NaN,835.489140744817,852.518357529101,NaN,NaN,835.489140744817,852.518357529101,1036.43188291453,695.524681321058,1000.94274216971,443.006323791957,764.510859255183,347.4816424709,563.568117085469,504.475318678942,599.057257830286,756.993676208043,4,0,0,0,0,0,horizontal,vertical,vertical,vertical,vertical,vertical
1c,16,100143,3,2,130,19,F,NA,variable,homogeneous,6,absent,0.73253607749939,1,vertical,vertical,1,0.95293045910922,red,2,NaN,1006.29933356561,749.885239334581,NaN,NaN,773.345241866748,853.60308331891,1006.29933356561,749.885239334581,1032.95409169886,496.282156015671,826.654758133252,346.39691668109,593.700666434388,450.114760665419,567.045908301137,703.717843984329,0,4,0,0,0,0,horizontal,vertical,vertical,vertical,vertical,vertical
1c,16,100143,3,3,131,19,F,NA,variable,homogeneous,5,absent,1.34727001190186,1,vertical,vertical,1,1.01175220229409,green,3,NaN,1016.25226451989,464.870587620533,NaN,NaN,704.475318678942,836.431882914531,995.341332995339,763.910840470068,1016.25226451989,464.870587620533,738.309916622085,352.574589799621,545.621167183745,582.212099195248,0,0,0,0,4,0,0,NaN,horizontal,horizontal,vertical,horizontal,horizontal,none
1c,16,100143,3,4,132,19,F,NA,variable,homogeneous,5,present,0.585356950759888,1,vertical,vertical,1,0.929401761835272,red,3,1,992.450942956807,432.704947607421,742.637481142314,848.464366520235,742.637481142314,848.464366520235,1018.57766167904,731.334709102064,992.450942956807,432.704947607421,700.363562235235,365.271262369628,545.970351986605,622.224714400653,0,0,0,0,4,0,0,NaN,vertical,horizontal,vertical,horizontal,vertical,none
1c,16,100143,3,5,133,19,F,NA,variable,homogeneous,3,present,0.68802285194397,1,horizontal,horizontal,1,0.941166110472246,red,2,1,1020.83647796503,472.5,800,855,800,855,1020.83647796503,472.5,579.163522034968,472.5,0,0,0,0,0,0,0,4,0,NaN,NaN,NaN,vertical,horizontal,vertical,none,none,none
1c,16,100143,3,6,134,19,F,NA,variable,homogeneous,4,absent,1.06104493141174,1,horizontal,horizontal,1,0.964694807746194,green,4,NaN,565.271262369628,500.363562235235,NaN,NaN,700.363562235235,834.728737630372,1034.72873763037,699.636437764765,899.636437764765,365.271262369628,565.271262369628,500.363562235235,0,0,0,0,0,0,0,4,NaN,NaN,vertical,horizontal,vertical,horizontal,none,none
1c,16,100143,3,7,135,19,F,NA,variable,homogeneous,6,present,0.869591951370239,1,vertical,vertical,1,0.752936532280662,green,4,6,696.282156015671,367.045908301137,650.114760665419,806.299333565612,903.717843984329,832.954091698863,1053.60308331891,626.654758133252,949.885239334581,393.700666434388,696.282156015671,367.045908301137,546.39691668109,573.345241866748,650.114760665419,806.299333565612,0,0,0,4,0,0,vertical,vertical,horizontal,vertical,horizontal,horizontal
1c,16,100143,3,8,136,19,F,NA,variable,homogeneous,4,absent,1.02697396278381,1,vertical,vertical,1,0.976459156383168,green,1,NaN,915.767577433584,827.206663668034,NaN,NaN,915.767577433584,827.206663668034,1027.20666366803,484.232422566416,684.232422566416,372.793336331966,572.793336331966,715.767577433584,0,0,0,0,4,0,0,0,NaN,NaN,vertical,vertical,horizontal,horizontal,none,none
1c,16,100143,3,9,137,19,F,NA,variable,homogeneous,6,present,0.823714017868042,1,horizontal,horizontal,1,0.799993926828558,red,5,2,588.595418998464,457.40580961496,1011.40458100154,742.594190385041,782.212099195248,854.378832816255,1011.40458100154,742.594190385041,1029.19248180629,488.215357568785,817.787900804752,345.621167183745,588.595418998464,457.40580961496,570.807518193712,711.784642431215,0,0,0,0,4,0,horizontal,horizontal,horizontal,horizontal,horizontal,vertical
1c,16,100143,3,10,138,19,F,NA,variable,homogeneous,4,absent,1.1182279586792,1,horizontal,horizontal,1,1.09410264275291,green,3,NaN,721.200666434388,357.480588344736,NaN,NaN,878.799333565612,842.519411655264,1042.51941165526,521.200666434388,721.200666434388,357.480588344736,557.480588344736,678.799333565612,0,0,0,0,0,0,4,0,NaN,NaN,vertical,vertical,horizontal,vertical,none,none
1c,16,100143,3,11,139,19,F,NA,variable,homogeneous,6,absent,0.574908018112183,1,vertical,vertical,1,1.09410264275291,green,3,NaN,1023.02802532055,476.373546837184,NaN,NaN,795.549636358493,854.96116226488,1018.57766167904,731.334709102064,1023.02802532055,476.373546837184,804.450363641507,345.03883773512,581.422338320961,468.665290897936,576.971974679454,723.626453162816,0,0,4,0,0,0,vertical,vertical,vertical,horizontal,vertical,vertical
1c,16,100143,3,12,140,19,F,NA,variable,homogeneous,3,present,0.987210988998413,1,vertical,vertical,1,0.83528697273948,red,1,2,610.498069503264,770.628304621509,1042.51941165526,678.799333565612,610.498069503264,770.628304621509,1042.51941165526,678.799333565612,746.982518841471,350.57236181288,0,0,0,0,0,0,4,0,0,NaN,NaN,NaN,vertical,horizontal,vertical,none,none,none
1c,16,100143,3,13,141,19,F,NA,variable,homogeneous,3,absent,0.697793006896973,0,horizontal,vertical,1,0.729407835006714,red,1,NaN,960.476699717708,798.172220171528,NaN,NaN,960.476699717708,798.172220171528,891.383827134052,361.936991243214,548.13947314824,639.890788585259,0,0,0,0,0,0,4,0,0,NaN,NaN,NaN,horizontal,vertical,vertical,none,none,none
1c,16,100143,3,14,142,19,F,NA,variable,homogeneous,3,absent,1.37548089027405,1,horizontal,horizontal,1,0.77646522955461,green,2,NaN,1046.31108570371,534.001143498857,NaN,NaN,734.001143498857,846.311085703712,1046.31108570371,534.001143498857,619.68777079743,419.68777079743,0,0,0,0,0,0,0,4,0,NaN,NaN,NaN,horizontal,horizontal,horizontal,none,none,none
1c,16,100143,3,15,143,19,F,NA,variable,homogeneous,5,absent,0.955100059509277,1,horizontal,horizontal,1,0.999987853657116,green,1,NaN,946.261991269517,808.883771293693,NaN,NaN,946.261991269517,808.883771293693,1043.85771277057,525.445215295702,804.450363641507,345.03883773512,558.892763222174,516.980120613425,646.537169096228,803.65205506206,0,0,4,0,0,0,0,NaN,horizontal,horizontal,vertical,horizontal,horizontal,none
1c,16,100143,3,16,144,19,F,NA,variable,homogeneous,6,absent,0.542140007019043,1,vertical,vertical,1,0.77646522955461,red,2,NaN,1008.88377129369,746.261991269517,NaN,NaN,777.775285599347,854.029648013395,1008.88377129369,746.261991269517,1031.10848569435,492.232343256122,822.224714400653,345.970351986605,591.116228706307,453.738008730483,568.891514305654,707.767656743878,0,4,0,0,0,0,horizontal,vertical,horizontal,vertical,horizontal,vertical
1c,16,100143,3,17,145,19,F,NA,variable,homogeneous,4,present,1.19472599029541,1,vertical,vertical,1,0.682350440458818,red,3,4,874.554784704298,356.142287229426,556.142287229426,525.445215295702,725.445215295702,843.857712770574,1043.85771277057,674.554784704298,874.554784704298,356.142287229426,556.142287229426,525.445215295702,0,0,0,0,0,0,4,0,NaN,NaN,vertical,horizontal,vertical,vertical,none,none
1c,16,100143,3,18,146,19,F,NA,variable,homogeneous,6,absent,1.0217559337616,1,horizontal,horizontal,1,0.941166110472246,red,5,NaN,568.891514305654,492.232343256122,NaN,NaN,822.224714400653,854.029648013395,1031.10848569435,707.767656743878,1008.88377129369,453.738008730483,777.775285599347,345.970351986605,568.891514305654,492.232343256122,591.116228706307,746.261991269517,0,0,0,0,4,0,vertical,vertical,horizontal,vertical,horizontal,vertical
1c,16,100143,3,19,147,19,F,NA,variable,homogeneous,3,absent,0.839702129364014,1,horizontal,horizontal,1,0.870580018650402,green,1,NaN,1008.88377129369,746.261991269517,NaN,NaN,1008.88377129369,746.261991269517,822.224714400653,345.970351986605,568.891514305654,707.767656743878,0,0,0,0,0,0,4,0,0,NaN,NaN,NaN,horizontal,horizontal,horizontal,none,none,none
1c,16,100143,3,20,148,19,F,NA,variable,homogeneous,6,absent,0.946702003479004,1,horizontal,horizontal,1,1.09410264275291,red,6,NaN,545.970351986605,622.224714400653,NaN,NaN,692.232343256122,831.108485694346,946.261991269517,808.883771293693,1054.0296480134,577.775285599347,907.767656743878,368.891514305654,653.738008730483,391.116228706307,545.970351986605,622.224714400653,0,0,0,0,0,4,horizontal,vertical,horizontal,vertical,horizontal,horizontal
1c,16,100143,3,21,149,19,F,NA,variable,homogeneous,3,present,1.09681701660156,1,horizontal,horizontal,1,0.752936532280662,green,1,3,586.139005173917,738.882953928832,786.654331158049,345.349468637584,586.139005173917,738.882953928832,1027.20666366803,715.767577433584,786.654331158049,345.349468637584,0,0,0,0,0,0,4,0,0,NaN,NaN,NaN,horizontal,vertical,vertical,none,none,none
1c,16,100143,3,22,150,19,F,NA,variable,homogeneous,3,present,0.753746032714844,1,vertical,vertical,1,0.741172183643688,green,3,2,545.03883773512,595.549636358493,931.334709102064,381.422338320961,923.626453162816,823.028025320546,931.334709102064,381.422338320961,545.03883773512,595.549636358493,0,0,0,0,0,0,0,0,4,NaN,NaN,NaN,horizontal,vertical,vertical,none,none,none
1c,16,100143,3,23,151,19,F,NA,variable,homogeneous,4,present,0.580626010894775,1,vertical,vertical,1,0.976459156383168,green,3,4,911.784642431215,370.807518193712,570.807518193712,488.215357568785,688.215357568785,829.192481806288,1029.19248180629,711.784642431215,911.784642431215,370.807518193712,570.807518193712,488.215357568785,0,0,0,0,0,0,4,0,NaN,NaN,horizontal,horizontal,vertical,vertical,none,none
1c,16,100143,3,24,152,19,F,NA,variable,homogeneous,6,present,0.974956035614014,1,vertical,vertical,1,0.729407835006714,green,2,1,1038.06300875679,691.383827134052,839.890788585259,851.86052685176,839.890788585259,851.86052685176,1038.06300875679,691.383827134052,998.172220171528,439.523300282291,760.109211414741,348.13947314824,561.936991243214,508.616172865948,601.827779828472,760.476699717708,0,4,0,0,0,0,horizontal,vertical,vertical,vertical,vertical,horizontal
1c,16,100143,3,25,153,19,F,NA,variable,homogeneous,4,absent,0.725619077682495,1,vertical,vertical,1,0.95293045910922,green,2,NaN,1054.96116226488,604.450363641507,NaN,NaN,795.549636358493,854.96116226488,1054.96116226488,604.450363641507,804.450363641507,345.03883773512,545.03883773512,595.549636358493,0,0,0,0,0,4,0,0,NaN,NaN,vertical,vertical,horizontal,vertical,none,none
1c,16,100143,3,26,154,19,F,NA,variable,homogeneous,5,present,0.857419967651367,1,vertical,vertical,1,0.65882174318487,green,5,3,650.114760665419,806.299333565612,800,345,949.885239334581,806.299333565612,1042.51941165526,521.200666434388,800,345,557.480588344736,521.200666434388,650.114760665419,806.299333565612,0,0,0,0,0,0,4,NaN,vertical,horizontal,horizontal,horizontal,vertical,none
1c,16,100143,3,27,155,19,F,NA,variable,homogeneous,4,absent,1.02312397956848,1,horizontal,horizontal,1,0.623528697273948,red,2,NaN,1045.12173246427,670.287525733335,NaN,NaN,729.712474266665,845.121732464271,1045.12173246427,670.287525733335,870.287525733335,354.878267535729,554.878267535729,529.712474266665,0,0,0,0,0,4,0,0,NaN,NaN,vertical,horizontal,vertical,vertical,none,none
1c,16,100143,3,28,156,19,F,NA,variable,homogeneous,3,absent,0.559355020523071,1,horizontal,horizontal,1,0.788229578191584,red,2,NaN,923.626453162816,376.971974679454,NaN,NaN,931.334709102064,818.577661679039,923.626453162816,376.971974679454,545.03883773512,604.450363641507,0,0,0,0,0,0,0,4,0,NaN,NaN,NaN,horizontal,horizontal,horizontal,none,none,none
1c,16,100143,3,29,157,19,F,NA,variable,homogeneous,5,absent,0.809508085250854,1,vertical,vertical,1,0.929401761835272,red,4,NaN,561.936991243214,508.616172865948,NaN,NaN,938.882953928832,813.860994826083,1046.31108570371,534.001143498857,813.345668841951,345.349468637584,561.936991243214,508.616172865948,639.523300282292,798.172220171528,0,0,0,0,0,4,0,NaN,vertical,horizontal,horizontal,vertical,vertical,none
1c,16,100143,3,30,158,19,F,NA,variable,homogeneous,5,present,0.899708986282349,1,horizontal,horizontal,1,0.905873064561324,red,1,3,865.998856501143,846.311085703712,891.383827134052,361.936991243214,865.998856501143,846.311085703712,1054.65053136242,613.345668841951,891.383827134052,361.936991243214,601.827779828472,439.523300282291,586.139005173917,738.882953928832,0,0,4,0,0,0,0,NaN,horizontal,horizontal,horizontal,vertical,vertical,none
1c,16,100143,3,31,159,19,F,NA,variable,homogeneous,5,absent,0.741273164749146,1,vertical,vertical,1,0.964694807746194,green,5,NaN,554.878267535729,670.287525733335,NaN,NaN,791.100628340862,854.844660889869,1039.62161830041,687.215136548046,956.993676208043,399.057257830286,657.405809614959,388.595418998464,554.878267535729,670.287525733335,0,0,0,0,0,0,4,NaN,horizontal,horizontal,vertical,vertical,vertical,none
1c,16,100143,3,32,160,19,F,NA,variable,homogeneous,6,present,0.932753086090088,1,vertical,vertical,1,0.623528697273948,red,2,4,1003.65205506206,753.462830903772,831.076682568313,346.900731331463,768.923317431687,853.099268668537,1003.65205506206,753.462830903772,1034.72873763037,500.363562235235,831.076682568313,346.900731331463,596.34794493794,446.537169096228,565.271262369628,699.636437764765,0,4,0,0,0,0,horizontal,vertical,horizontal,horizontal,horizontal,horizontal
1c,16,100143,3,33,161,19,F,NA,variable,homogeneous,6,present,0.847852945327759,1,horizontal,horizontal,1,0.999987853657116,green,4,2,848.656293821019,349.685068220846,992.450942956807,767.295052392579,751.343706178981,850.314931779154,992.450942956807,767.295052392579,1041.10723677783,516.980120613425,848.656293821019,349.685068220846,607.549057043193,432.704947607421,558.892763222174,683.019879386575,0,0,0,4,0,0,vertical,vertical,vertical,horizontal,vertical,horizontal
1c,16,100143,3,34,162,19,F,NA,variable,homogeneous,5,absent,0.524084091186523,0,horizontal,vertical,1,0.95293045910922,red,1,NaN,746.982518841471,849.42763818712,NaN,NaN,746.982518841471,849.42763818712,1020.83647796503,727.5,989.501930496736,429.371695378491,696.282156015671,367.045908301137,546.39691668109,626.654758133252,0,0,4,0,0,0,0,NaN,horizontal,horizontal,horizontal,vertical,horizontal,none
1c,16,100143,3,35,163,19,F,NA,variable,homogeneous,3,present,0.8144850730896,1,horizontal,horizontal,1,0.988223505020142,red,3,2,760.109211414741,348.13947314824,1038.06300875679,691.383827134052,601.827779828472,760.476699717708,1038.06300875679,691.383827134052,760.109211414741,348.13947314824,0,0,0,0,0,0,0,0,4,NaN,NaN,NaN,vertical,horizontal,horizontal,none,none,none
1c,16,100143,3,36,164,19,F,NA,variable,homogeneous,5,absent,0.734951019287109,1,horizontal,horizontal,1,0.6,red,2,NaN,1016.25226451989,735.129412379467,NaN,NaN,738.309916622085,847.425410200379,1016.25226451989,735.129412379467,995.341332995339,436.089159529932,704.475318678942,363.568117085469,545.621167183745,617.787900804752,0,0,0,4,0,0,0,NaN,vertical,horizontal,vertical,horizontal,horizontal,none
1c,16,100143,3,37,165,19,F,NA,variable,homogeneous,4,absent,0.563750028610229,1,vertical,vertical,1,0.694114789095792,red,3,NaN,822.224714400653,345.970351986605,NaN,NaN,777.775285599347,854.029648013395,1054.0296480134,622.224714400653,822.224714400653,345.970351986605,545.970351986605,577.775285599347,0,0,0,0,0,0,4,0,NaN,NaN,horizontal,vertical,vertical,vertical,none,none
1c,16,100143,3,38,166,19,F,NA,variable,homogeneous,4,absent,0.616515874862671,1,vertical,vertical,1,0.858815670013428,red,2,NaN,980.31222920257,419.68777079743,NaN,NaN,980.31222920257,780.31222920257,980.31222920257,419.68777079743,619.68777079743,419.68777079743,619.68777079743,780.31222920257,0,0,0,0,0,4,0,0,NaN,NaN,vertical,vertical,horizontal,vertical,none,none
1c,16,100143,3,39,167,19,F,NA,variable,homogeneous,3,absent,0.748759031295776,0,vertical,horizontal,1,0.988223505020142,red,3,NaN,549.685068220846,551.343706178981,NaN,NaN,883.019879386575,841.107236777826,967.295052392579,407.549057043193,549.685068220846,551.343706178981,0,0,0,0,0,0,0,0,4,NaN,NaN,NaN,vertical,horizontal,vertical,none,none,none
1c,16,100143,3,40,168,19,F,NA,variable,homogeneous,4,present,1.25530791282654,1,horizontal,horizontal,1,0.964694807746194,red,1,2,907.767656743878,831.108485694346,1031.10848569435,492.232343256122,907.767656743878,831.108485694346,1031.10848569435,492.232343256122,692.232343256122,368.891514305654,568.891514305654,707.767656743878,0,0,0,0,4,0,0,0,NaN,NaN,horizontal,vertical,horizontal,vertical,none,none
1c,16,100143,3,41,169,19,F,NA,variable,homogeneous,3,present,0.834928035736084,1,vertical,vertical,1,0.729407835006714,red,3,1,556.142287229426,674.554784704298,986.495193912888,773.909581815937,986.495193912888,773.909581815937,857.362518857686,351.535633479765,556.142287229426,674.554784704298,0,0,0,0,0,0,0,0,4,NaN,NaN,NaN,horizontal,horizontal,vertical,none,none,none
1c,16,100143,3,42,170,19,F,NA,variable,homogeneous,6,absent,0.780915021896362,1,vertical,vertical,1,0.647057394547896,green,2,NaN,1054.37883281626,617.787900804752,NaN,NaN,911.784642431215,829.192481806288,1054.37883281626,617.787900804752,942.594190385041,388.595418998464,688.215357568785,370.807518193712,545.621167183745,582.212099195248,657.405809614959,811.404581001536,0,4,0,0,0,0,vertical,vertical,horizontal,horizontal,horizontal,vertical
1c,16,100143,3,43,171,19,F,NA,variable,homogeneous,3,absent,0.690573930740356,1,vertical,vertical,1,0.694114789095792,green,1,NaN,938.882953928832,813.860994826083,NaN,NaN,938.882953928832,813.860994826083,915.767577433584,372.793336331966,545.349468637584,613.345668841951,0,0,0,0,0,0,4,0,0,NaN,NaN,NaN,vertical,vertical,vertical,none,none,none
1c,16,100143,3,44,172,19,F,NA,variable,homogeneous,5,present,0.861450910568237,1,horizontal,horizontal,1,0.847051321376454,green,1,3,887.215136548046,839.621618300407,870.287525733335,354.878267535729,887.215136548046,839.621618300407,1054.84466088987,591.100628340862,870.287525733335,354.878267535729,588.595418998464,457.40580961496,599.057257830286,756.993676208043,0,0,4,0,0,0,0,NaN,horizontal,vertical,horizontal,vertical,vertical,none
1c,16,100143,3,45,173,19,F,NA,variable,homogeneous,5,present,0.784405946731567,1,horizontal,horizontal,1,0.870580018650402,green,2,5,1051.86052685176,639.890788585259,572.793336331966,715.767577433584,839.890788585259,851.86052685176,1051.86052685176,639.890788585259,915.767577433584,372.793336331966,619.68777079743,419.68777079743,572.793336331966,715.767577433584,0,0,0,4,0,0,0,NaN,horizontal,horizontal,vertical,vertical,horizontal,none
1c,16,100143,3,46,174,19,F,NA,variable,homogeneous,5,present,0.924551010131836,1,vertical,vertical,1,0.623528697273948,red,1,5,795.549636358493,854.96116226488,556.142287229426,674.554784704298,795.549636358493,854.96116226488,1041.10723677783,683.019879386575,953.462830903772,396.34794493794,653.738008730483,391.116228706307,556.142287229426,674.554784704298,0,0,4,0,0,0,0,NaN,vertical,horizontal,horizontal,horizontal,horizontal,none
1c,16,100143,3,47,175,19,F,NA,variable,homogeneous,4,absent,1.0664050579071,1,horizontal,horizontal,1,0.976459156383168,red,1,NaN,935.129412379467,816.252264519889,NaN,NaN,935.129412379467,816.252264519889,1016.25226451989,464.870587620533,664.870587620533,383.747735480111,583.747735480111,735.129412379467,0,0,0,0,4,0,0,0,NaN,NaN,horizontal,horizontal,vertical,vertical,none,none
1c,16,100143,3,48,176,19,F,NA,variable,homogeneous,6,present,0.661913871765137,1,vertical,vertical,1,1.09410264275291,red,3,6,1016.25226451989,464.870587620533,583.747735480111,735.129412379467,808.899371659138,854.844660889869,1025.15163617903,719.715248510402,1016.25226451989,464.870587620533,791.100628340862,345.155339110131,574.848363820974,480.284751489598,583.747735480111,735.129412379467,0,0,4,0,0,0,vertical,vertical,vertical,horizontal,vertical,horizontal
1c,16,100143,3,49,177,19,F,NA,variable,homogeneous,3,absent,0.563382863998413,1,vertical,vertical,1,1.01175220229409,red,2,NaN,1042.51941165526,521.200666434388,NaN,NaN,746.982518841471,849.42763818712,1042.51941165526,521.200666434388,610.498069503264,429.371695378491,0,0,0,0,0,0,0,4,0,NaN,NaN,NaN,horizontal,vertical,vertical,none,none,none
1c,16,100143,3,50,178,19,F,NA,variable,homogeneous,4,present,0.787950038909912,1,vertical,vertical,1,0.623528697273948,green,3,4,903.717843984329,367.045908301137,567.045908301137,496.282156015671,696.282156015671,832.954091698863,1032.95409169886,703.717843984329,903.717843984329,367.045908301137,567.045908301137,496.282156015671,0,0,0,0,0,0,4,0,NaN,NaN,vertical,vertical,vertical,vertical,none,none
1c,16,100143,3,51,179,19,F,NA,variable,homogeneous,6,present,1.22877502441406,1,horizontal,horizontal,1,0.647057394547896,green,6,1,607.549057043193,767.295052392579,848.656293821019,850.314931779154,848.656293821019,850.314931779154,1041.10723677783,683.019879386575,992.450942956807,432.704947607421,751.343706178981,349.685068220846,558.892763222174,516.980120613425,607.549057043193,767.295052392579,0,0,0,0,0,4,horizontal,vertical,horizontal,vertical,horizontal,horizontal
1c,16,100143,3,52,180,19,F,NA,variable,homogeneous,3,present,0.812816858291626,1,horizontal,horizontal,1,0.764700880917636,green,1,3,777.775285599347,854.029648013395,591.116228706307,453.738008730483,777.775285599347,854.029648013395,1031.10848569435,492.232343256122,591.116228706307,453.738008730483,0,0,0,0,0,0,4,0,0,NaN,NaN,NaN,horizontal,horizontal,vertical,none,none,none
1c,16,100143,3,53,181,19,F,NA,variable,homogeneous,4,present,0.750724077224731,1,horizontal,horizontal,1,0.870580018650402,green,4,2,579.163522034968,472.5,1020.83647796503,727.5,672.5,820.836477965032,1020.83647796503,727.5,927.5,379.163522034968,579.163522034968,472.5,0,0,0,0,0,0,0,4,NaN,NaN,horizontal,vertical,horizontal,horizontal,none,none
1c,16,100143,3,54,182,19,F,NA,variable,homogeneous,4,present,0.758762836456299,1,horizontal,horizontal,1,0.647057394547896,green,4,1,545.970351986605,577.775285599347,777.775285599347,854.029648013395,777.775285599347,854.029648013395,1054.0296480134,622.224714400653,822.224714400653,345.970351986605,545.970351986605,577.775285599347,0,0,0,0,0,0,0,4,NaN,NaN,horizontal,horizontal,horizontal,horizontal,none,none
1c,16,100143,3,55,183,19,F,NA,variable,homogeneous,4,present,0.943145990371704,1,horizontal,horizontal,1,0.858815670013428,red,2,3,980.31222920257,419.68777079743,619.68777079743,419.68777079743,980.31222920257,780.31222920257,980.31222920257,419.68777079743,619.68777079743,419.68777079743,619.68777079743,780.31222920257,0,0,0,0,0,4,0,0,NaN,NaN,horizontal,horizontal,horizontal,vertical,none,none
1c,16,100143,3,56,184,19,F,NA,variable,homogeneous,5,present,0.599223136901855,1,vertical,vertical,1,0.847051321376454,green,4,1,576.971974679454,476.373546837184,907.767656743878,831.108485694346,907.767656743878,831.108485694346,1053.09926866854,568.923317431687,848.656293821019,349.685068220846,576.971974679454,476.373546837184,613.504806087112,773.909581815937,0,0,0,0,0,4,0,NaN,vertical,vertical,horizontal,vertical,horizontal,none
1c,16,100143,3,57,185,19,F,NA,variable,homogeneous,3,absent,0.527567863464355,1,vertical,vertical,1,1.01175220229409,green,2,NaN,949.885239334581,393.700666434388,NaN,NaN,903.717843984329,832.954091698863,949.885239334581,393.700666434388,546.39691668109,573.345241866748,0,0,0,0,0,0,0,4,0,NaN,NaN,NaN,horizontal,vertical,horizontal,none,none,none
1c,16,100143,3,58,186,19,F,NA,variable,homogeneous,6,present,0.852106809616089,1,horizontal,horizontal,1,1.08233829411593,red,2,5,1054.84466088987,608.899371659138,545.155339110131,591.100628340862,919.715248510402,825.151636179026,1054.84466088987,608.899371659138,935.129412379467,383.747735480111,680.284751489598,374.848363820974,545.155339110131,591.100628340862,664.870587620533,816.252264519889,0,4,0,0,0,0,vertical,horizontal,horizontal,vertical,vertical,horizontal
1c,16,100143,3,59,187,19,F,NA,variable,homogeneous,4,present,0.701530933380127,1,vertical,vertical,1,0.811758275465532,red,4,3,554.878267535729,529.712474266665,870.287525733335,354.878267535729,729.712474266665,845.121732464271,1045.12173246427,670.287525733335,870.287525733335,354.878267535729,554.878267535729,529.712474266665,0,0,0,0,0,0,0,4,NaN,NaN,horizontal,vertical,vertical,vertical,none,none
1c,16,100143,3,60,188,19,F,NA,variable,homogeneous,3,present,1.06245493888855,1,vertical,vertical,1,0.741172183643688,green,1,3,949.885239334581,806.299333565612,546.39691668109,626.654758133252,949.885239334581,806.299333565612,903.717843984329,367.045908301137,546.39691668109,626.654758133252,0,0,0,0,0,0,4,0,0,NaN,NaN,NaN,vertical,horizontal,horizontal,none,none,none
1c,16,100143,3,61,189,19,F,NA,variable,homogeneous,6,absent,0.72934889793396,1,horizontal,horizontal,1,0.670586091821844,green,5,NaN,661.117046071168,386.139005173917,NaN,NaN,684.232422566416,827.206663668034,938.882953928832,813.860994826083,1054.65053136242,586.654331158049,915.767577433584,372.793336331966,661.117046071168,386.139005173917,545.349468637584,613.345668841951,0,0,0,0,4,0,horizontal,vertical,vertical,horizontal,horizontal,horizontal
1c,16,100143,3,62,190,19,F,NA,variable,homogeneous,5,absent,0.641370058059692,1,vertical,vertical,1,1.05880959684199,red,4,NaN,746.982518841471,350.57236181288,NaN,NaN,696.282156015671,832.954091698863,989.501930496736,770.628304621509,1020.83647796503,472.5,746.982518841471,350.57236181288,546.39691668109,573.345241866748,0,0,0,0,0,4,0,NaN,horizontal,horizontal,horizontal,vertical,vertical,none
1c,16,100143,3,63,191,19,F,NA,variable,homogeneous,5,present,1.17120504379272,1,horizontal,horizontal,1,0.647057394547896,red,5,3,548.13947314824,560.109211414741,1027.20666366803,484.232422566416,684.232422566416,827.206663668034,980.31222920257,780.31222920257,1027.20666366803,484.232422566416,760.109211414741,348.13947314824,548.13947314824,560.109211414741,0,0,0,0,0,0,4,NaN,vertical,vertical,horizontal,horizontal,horizontal,none
1c,16,100143,3,64,192,19,F,NA,variable,homogeneous,5,absent,0.771785974502563,1,horizontal,horizontal,1,0.647057394547896,green,2,NaN,1000.94274216971,756.993676208043,NaN,NaN,712.784863451954,839.621618300407,1000.94274216971,756.993676208043,1011.40458100154,457.40580961496,729.712474266665,354.878267535729,545.155339110131,591.100628340862,0,0,0,4,0,0,0,NaN,vertical,horizontal,horizontal,vertical,vertical,none
1c,16,100143,4,1,193,19,F,NA,variable,homogeneous,4,present,0.581954002380371,1,vertical,vertical,1,1.07057394547896,red,4,1,549.685068220846,551.343706178981,751.343706178981,850.314931779154,751.343706178981,850.314931779154,1050.31493177915,648.656293821019,848.656293821019,349.685068220846,549.685068220846,551.343706178981,0,0,0,0,0,0,0,4,NaN,NaN,vertical,horizontal,vertical,vertical,none,none
1c,16,100143,4,2,194,19,F,NA,variable,homogeneous,5,absent,1.39392399787903,1,horizontal,horizontal,1,0.6,red,2,NaN,1020.83647796503,727.5,NaN,NaN,746.982518841471,849.42763818712,1020.83647796503,727.5,989.501930496736,429.371695378491,696.282156015671,367.045908301137,546.39691668109,626.654758133252,0,0,0,4,0,0,0,NaN,horizontal,horizontal,vertical,vertical,vertical,none
1c,16,100143,4,3,195,19,F,NA,variable,homogeneous,3,present,0.897425889968872,1,horizontal,horizontal,1,0.77646522955461,green,2,1,903.717843984329,367.045908301137,949.885239334581,806.299333565612,949.885239334581,806.299333565612,903.717843984329,367.045908301137,546.39691668109,626.654758133252,0,0,0,0,0,0,0,4,0,NaN,NaN,NaN,vertical,horizontal,vertical,none,none,none
1c,16,100143,4,4,196,19,F,NA,variable,homogeneous,4,absent,0.552148103713989,1,vertical,vertical,1,0.623528697273948,green,3,NaN,891.383827134052,361.936991243214,NaN,NaN,708.616172865948,838.063008756786,1038.06300875679,691.383827134052,891.383827134052,361.936991243214,561.936991243214,508.616172865948,0,0,0,0,0,0,4,0,NaN,NaN,horizontal,horizontal,vertical,horizontal,none,none
1c,16,100143,4,5,197,19,F,NA,variable,homogeneous,5,present,0.828253984451294,1,vertical,vertical,1,0.647057394547896,red,1,5,808.899371659138,854.844660889869,560.378381699593,687.215136548046,808.899371659138,854.844660889869,1045.12173246427,670.287525733335,942.594190385041,388.595418998464,643.006323791957,399.057257830286,560.378381699593,687.215136548046,0,0,4,0,0,0,0,NaN,vertical,vertical,horizontal,horizontal,vertical,none
1c,16,100143,4,6,198,19,F,NA,variable,homogeneous,5,absent,0.68250298500061,1,horizontal,horizontal,1,1.07057394547896,green,2,NaN,1032.95409169886,703.717843984329,NaN,NaN,773.345241866748,853.60308331891,1032.95409169886,703.717843984329,970.628304621509,410.498069503264,672.5,379.163522034968,550.57236181288,653.017481158529,0,0,0,4,0,0,0,NaN,horizontal,horizontal,vertical,horizontal,horizontal,none
1c,16,100143,4,7,199,19,F,NA,variable,homogeneous,6,present,0.953619956970215,1,horizontal,horizontal,1,0.858815670013428,red,1,6,684.232422566416,827.206663668034,545.349468637584,613.345668841951,684.232422566416,827.206663668034,938.882953928832,813.860994826083,1054.65053136242,586.654331158049,915.767577433584,372.793336331966,661.117046071168,386.139005173917,545.349468637584,613.345668841951,4,0,0,0,0,0,horizontal,horizontal,horizontal,vertical,horizontal,horizontal
1c,16,100143,4,8,200,19,F,NA,variable,homogeneous,5,present,0.646892070770264,1,horizontal,horizontal,1,0.89410871592435,red,5,2,548.874022981887,644.280285305067,1029.19248180629,711.784642431215,764.510859255183,852.518357529101,1029.19248180629,711.784642431215,977.137884467044,416.568350913644,680.284751489598,374.848363820974,548.874022981887,644.280285305067,0,0,0,0,0,0,4,NaN,vertical,horizontal,horizontal,horizontal,horizontal,none
1c,16,100143,4,9,201,19,F,NA,variable,homogeneous,6,present,0.719820976257324,1,vertical,vertical,1,0.788229578191584,red,6,2,586.139005173917,738.882953928832,1027.20666366803,715.767577433584,813.345668841951,854.650531362416,1027.20666366803,715.767577433584,1013.86099482608,461.117046071168,786.654331158049,345.349468637584,572.793336331966,484.232422566416,586.139005173917,738.882953928832,0,0,0,0,0,4,vertical,vertical,horizontal,vertical,vertical,vertical
1c,16,100143,4,10,202,19,F,NA,variable,homogeneous,3,absent,0.850703001022339,1,horizontal,horizontal,1,0.611764348636974,green,3,NaN,629.371695378491,410.498069503264,NaN,NaN,721.200666434388,842.519411655264,1049.42763818712,546.982518841471,629.371695378491,410.498069503264,0,0,0,0,0,0,0,0,4,NaN,NaN,NaN,vertical,horizontal,horizontal,none,none,none
1c,16,100143,4,11,203,19,F,NA,variable,homogeneous,6,absent,0.698755025863647,1,horizontal,horizontal,1,0.941166110472246,red,4,NaN,734.001143498857,353.688914296288,NaN,NaN,865.998856501143,846.311085703712,1046.31108570371,665.998856501143,980.31222920257,419.68777079743,734.001143498857,353.688914296288,553.688914296288,534.001143498857,619.68777079743,780.31222920257,0,0,0,4,0,0,vertical,vertical,vertical,horizontal,vertical,vertical
1c,16,100143,4,12,204,19,F,NA,variable,homogeneous,3,present,0.731718063354492,1,horizontal,horizontal,1,0.941166110472246,red,3,1,786.654331158049,345.349468637584,586.139005173917,738.882953928832,586.139005173917,738.882953928832,1027.20666366803,715.767577433584,786.654331158049,345.349468637584,0,0,0,0,0,0,0,0,4,NaN,NaN,NaN,horizontal,horizontal,horizontal,none,none,none
1c,16,100143,4,13,205,19,F,NA,variable,homogeneous,3,present,0.66678786277771,1,horizontal,horizontal,1,0.811758275465532,green,3,2,760.109211414741,348.13947314824,1038.06300875679,691.383827134052,601.827779828472,760.476699717708,1038.06300875679,691.383827134052,760.109211414741,348.13947314824,0,0,0,0,0,0,0,0,4,NaN,NaN,NaN,vertical,vertical,horizontal,none,none,none
1c,16,100143,4,14,206,19,F,NA,variable,homogeneous,4,present,0.786352872848511,1,vertical,vertical,1,0.905873064561324,green,3,2,684.232422566416,372.793336331966,1027.20666366803,484.232422566416,915.767577433584,827.206663668034,1027.20666366803,484.232422566416,684.232422566416,372.793336331966,572.793336331966,715.767577433584,0,0,0,0,0,0,4,0,NaN,NaN,vertical,horizontal,vertical,vertical,none,none
1c,16,100143,4,15,207,19,F,NA,variable,homogeneous,4,absent,0.686667919158936,1,vertical,vertical,1,0.623528697273948,green,4,NaN,545.03883773512,604.450363641507,NaN,NaN,804.450363641507,854.96116226488,1054.96116226488,595.549636358493,795.549636358493,345.03883773512,545.03883773512,604.450363641507,0,0,0,0,0,0,0,4,NaN,NaN,vertical,horizontal,horizontal,vertical,none,none
1c,16,100143,4,16,208,19,F,NA,variable,homogeneous,6,present,1.12428903579712,1,horizontal,horizontal,1,0.788229578191584,green,3,5,1036.43188291453,504.475318678942,599.057257830286,443.006323791957,764.510859255183,852.518357529101,1000.94274216971,756.993676208043,1036.43188291453,504.475318678942,835.489140744817,347.4816424709,599.057257830286,443.006323791957,563.568117085469,695.524681321058,0,0,4,0,0,0,horizontal,horizontal,horizontal,horizontal,horizontal,horizontal
1c,16,100143,4,17,209,19,F,NA,variable,homogeneous,6,absent,0.66230297088623,1,vertical,vertical,1,0.964694807746194,red,2,NaN,1034.72873763037,699.636437764765,NaN,NaN,831.076682568313,853.099268668537,1034.72873763037,699.636437764765,1003.65205506206,446.537169096228,768.923317431687,346.900731331463,565.271262369628,500.363562235235,596.34794493794,753.462830903772,0,4,0,0,0,0,horizontal,vertical,horizontal,horizontal,vertical,vertical
1c,16,100143,4,18,210,19,F,NA,variable,homogeneous,5,absent,1.00634002685547,1,vertical,vertical,1,0.729407835006714,green,1,NaN,870.287525733335,845.121732464271,NaN,NaN,870.287525733335,845.121732464271,1054.84466088987,608.899371659138,887.215136548046,360.378381699593,599.057257830286,443.006323791957,588.595418998464,742.594190385041,0,0,4,0,0,0,0,NaN,vertical,horizontal,vertical,vertical,vertical,none
1c,16,100143,4,19,211,19,F,NA,variable,homogeneous,5,present,0.545551061630249,1,vertical,vertical,1,0.95293045910922,red,1,5,919.715248510402,825.151636179026,622.862115532956,783.431649086356,919.715248510402,825.151636179026,1051.12597701811,555.719714694933,835.489140744817,347.4816424709,570.807518193712,488.215357568785,622.862115532956,783.431649086356,0,0,4,0,0,0,0,NaN,vertical,vertical,horizontal,vertical,horizontal,none
1c,16,100143,4,20,212,19,F,NA,variable,homogeneous,3,absent,0.676614046096802,1,vertical,vertical,1,1.01175220229409,red,1,NaN,622.862115532956,783.431649086356,NaN,NaN,622.862115532956,783.431649086356,1047.42541020038,661.690083377915,729.712474266665,354.878267535729,0,0,0,0,0,0,4,0,0,NaN,NaN,NaN,vertical,vertical,horizontal,none,none,none
1c,16,100143,4,21,213,19,F,NA,variable,homogeneous,4,present,0.59277081489563,1,vertical,vertical,1,0.905873064561324,green,1,3,725.445215295702,843.857712770574,874.554784704298,356.142287229426,725.445215295702,843.857712770574,1043.85771277057,674.554784704298,874.554784704298,356.142287229426,556.142287229426,525.445215295702,0,0,0,0,4,0,0,0,NaN,NaN,vertical,horizontal,horizontal,vertical,none,none
1c,16,100143,4,22,214,19,F,NA,variable,homogeneous,6,absent,1.19755697250366,1,horizontal,horizontal,1,1.03528089956804,red,5,NaN,568.891514305654,492.232343256122,NaN,NaN,822.224714400653,854.029648013395,1031.10848569435,707.767656743878,1008.88377129369,453.738008730483,777.775285599347,345.970351986605,568.891514305654,492.232343256122,591.116228706307,746.261991269517,0,0,0,0,4,0,vertical,horizontal,vertical,vertical,horizontal,horizontal
1c,16,100143,4,23,215,19,F,NA,variable,homogeneous,5,present,1.1096088886261,1,vertical,vertical,1,0.6,green,2,5,1054.0296480134,622.224714400653,581.422338320961,731.334709102064,857.362518857686,848.464366520235,1054.0296480134,622.224714400653,899.636437764765,365.271262369628,607.549057043193,432.704947607421,581.422338320961,731.334709102064,0,0,0,4,0,0,0,NaN,horizontal,vertical,vertical,vertical,vertical,none
1c,16,100143,4,24,216,19,F,NA,variable,homogeneous,4,present,0.911458015441895,1,vertical,vertical,1,0.77646522955461,red,1,3,643.006323791957,800.942742169714,956.993676208043,399.057257830286,643.006323791957,800.942742169714,1000.94274216971,756.993676208043,956.993676208043,399.057257830286,599.057257830286,443.006323791957,0,0,0,0,4,0,0,0,NaN,NaN,vertical,vertical,horizontal,horizontal,none,none
1c,16,100143,4,25,217,19,F,NA,variable,homogeneous,6,present,0.952949047088623,1,horizontal,horizontal,1,0.752936532280662,green,3,2,1008.88377129369,453.738008730483,1031.10848569435,707.767656743878,822.224714400653,854.029648013395,1031.10848569435,707.767656743878,1008.88377129369,453.738008730483,777.775285599347,345.970351986605,568.891514305654,492.232343256122,591.116228706307,746.261991269517,0,0,4,0,0,0,vertical,horizontal,horizontal,horizontal,horizontal,horizontal
1c,16,100143,4,26,218,19,F,NA,variable,homogeneous,6,absent,0.725473880767822,1,vertical,vertical,1,1.07057394547896,green,2,NaN,983.431649086356,777.137884467044,NaN,NaN,738.309916622085,847.425410200379,983.431649086356,777.137884467044,1045.12173246427,529.712474266665,861.690083377915,352.574589799621,616.568350913644,422.862115532956,554.878267535729,670.287525733335,0,4,0,0,0,0,horizontal,vertical,horizontal,horizontal,horizontal,horizontal
1c,16,100143,4,27,219,19,F,NA,variable,homogeneous,6,present,0.865962028503418,1,vertical,vertical,1,0.682350440458818,green,3,1,1029.19248180629,488.215357568785,782.212099195248,854.378832816255,782.212099195248,854.378832816255,1011.40458100154,742.594190385041,1029.19248180629,488.215357568785,817.787900804752,345.621167183745,588.595418998464,457.40580961496,570.807518193712,711.784642431215,0,0,4,0,0,0,horizontal,vertical,vertical,vertical,vertical,horizontal
1c,16,100143,4,28,220,19,F,NA,variable,homogeneous,4,present,1.06551098823547,1,horizontal,horizontal,1,0.705879137732766,green,4,3,583.747735480111,464.870587620533,935.129412379467,383.747735480111,664.870587620533,816.252264519889,1016.25226451989,735.129412379467,935.129412379467,383.747735480111,583.747735480111,464.870587620533,0,0,0,0,0,0,0,4,NaN,NaN,horizontal,horizontal,horizontal,horizontal,none,none
1c,16,100143,4,29,221,19,F,NA,variable,homogeneous,6,present,0.747483015060425,1,vertical,vertical,1,1.02351655093106,green,4,1,696.282156015671,367.045908301137,903.717843984329,832.954091698863,903.717843984329,832.954091698863,1053.60308331891,626.654758133252,949.885239334581,393.700666434388,696.282156015671,367.045908301137,546.39691668109,573.345241866748,650.114760665419,806.299333565612,0,0,0,4,0,0,vertical,vertical,vertical,vertical,horizontal,vertical
1c,16,100143,4,30,222,19,F,NA,variable,homogeneous,3,absent,0.667027950286865,1,horizontal,horizontal,1,1.02351655093106,green,3,NaN,567.045908301137,496.282156015671,NaN,NaN,826.654758133252,853.60308331891,1006.29933356561,450.114760665419,567.045908301137,496.282156015671,0,0,0,0,0,0,0,0,4,NaN,NaN,NaN,vertical,vertical,horizontal,none,none,none
1c,16,100143,4,31,223,19,F,NA,variable,homogeneous,4,present,0.764501094818115,1,horizontal,horizontal,1,0.799993926828558,green,2,4,1054.96116226488,595.549636358493,545.03883773512,604.450363641507,804.450363641507,854.96116226488,1054.96116226488,595.549636358493,795.549636358493,345.03883773512,545.03883773512,604.450363641507,0,0,0,0,0,4,0,0,NaN,NaN,horizontal,horizontal,horizontal,horizontal,none,none
1c,16,100143,4,32,224,19,F,NA,variable,homogeneous,3,present,0.676562070846558,1,vertical,vertical,1,0.623528697273948,green,1,2,700.363562235235,834.728737630372,1053.09926866854,568.923317431687,700.363562235235,834.728737630372,1053.09926866854,568.923317431687,646.537169096228,396.34794493794,0,0,0,0,0,0,4,0,0,NaN,NaN,NaN,vertical,horizontal,vertical,none,none,none
1c,16,100143,4,33,225,19,F,NA,variable,homogeneous,4,present,0.577696084976196,1,horizontal,horizontal,1,0.77646522955461,red,4,2,546.39691668109,626.654758133252,1053.60308331891,573.345241866748,826.654758133252,853.60308331891,1053.60308331891,573.345241866748,773.345241866748,346.39691668109,546.39691668109,626.654758133252,0,0,0,0,0,0,0,4,NaN,NaN,vertical,horizontal,vertical,horizontal,none,none
1c,16,100143,4,34,226,19,F,NA,variable,homogeneous,3,present,0.724601984024048,1,vertical,vertical,1,0.752936532280662,red,3,1,738.309916622085,352.574589799621,616.568350913644,777.137884467044,616.568350913644,777.137884467044,1045.12173246427,670.287525733335,738.309916622085,352.574589799621,0,0,0,0,0,0,0,0,4,NaN,NaN,NaN,vertical,horizontal,vertical,none,none,none
1c,16,100143,4,35,227,19,F,NA,variable,homogeneous,6,absent,0.84039306640625,1,horizontal,horizontal,1,1.05880959684199,green,1,NaN,782.212099195248,854.378832816255,NaN,NaN,782.212099195248,854.378832816255,1011.40458100154,742.594190385041,1029.19248180629,488.215357568785,817.787900804752,345.621167183745,588.595418998464,457.40580961496,570.807518193712,711.784642431215,4,0,0,0,0,0,horizontal,vertical,horizontal,horizontal,vertical,vertical
1c,16,100143,4,36,228,19,F,NA,variable,homogeneous,4,absent,0.593540906906128,1,horizontal,horizontal,1,0.999987853657116,red,1,NaN,712.784863451954,839.621618300407,NaN,NaN,712.784863451954,839.621618300407,1039.62161830041,687.215136548046,887.215136548046,360.378381699593,560.378381699593,512.784863451954,0,0,0,0,4,0,0,0,NaN,NaN,horizontal,vertical,vertical,horizontal,none,none
1c,16,100143,4,37,229,19,F,NA,variable,homogeneous,3,present,0.675319910049438,1,vertical,vertical,1,0.694114789095792,red,2,1,1051.12597701811,644.280285305067,636.089159529932,795.341332995339,636.089159529932,795.341332995339,1051.12597701811,644.280285305067,712.784863451954,360.378381699593,0,0,0,0,0,0,0,4,0,NaN,NaN,NaN,horizontal,vertical,vertical,none,none,none
1c,16,100143,4,38,230,19,F,NA,variable,homogeneous,5,absent,0.686209917068481,1,horizontal,horizontal,1,0.858815670013428,green,2,NaN,1045.12173246427,670.287525733335,NaN,NaN,808.899371659138,854.844660889869,1045.12173246427,670.287525733335,942.594190385041,388.595418998464,643.006323791957,399.057257830286,560.378381699593,687.215136548046,0,0,0,4,0,0,0,NaN,vertical,horizontal,horizontal,horizontal,horizontal,none
1c,16,100143,4,39,231,19,F,NA,variable,homogeneous,4,present,1.1050660610199,1,horizontal,horizontal,1,1.04704524820501,red,4,2,616.568350913644,777.137884467044,983.431649086356,422.862115532956,977.137884467044,783.431649086356,983.431649086356,422.862115532956,622.862115532956,416.568350913644,616.568350913644,777.137884467044,0,0,0,0,0,0,0,4,NaN,NaN,vertical,horizontal,horizontal,horizontal,none,none
1c,16,100143,4,40,232,19,F,NA,variable,homogeneous,5,present,0.681133985519409,1,horizontal,horizontal,1,1.08233829411593,green,5,4,545.03883773512,595.549636358493,725.445215295702,356.142287229426,716.980120613425,841.107236777826,1003.65205506206,753.462830903772,1008.88377129369,453.738008730483,725.445215295702,356.142287229426,545.03883773512,595.549636358493,0,0,0,0,0,0,4,NaN,horizontal,vertical,horizontal,horizontal,horizontal,none
1c,16,100143,4,41,233,19,F,NA,variable,homogeneous,6,absent,0.727998018264771,1,vertical,vertical,1,0.858815670013428,red,2,NaN,1054.37883281626,617.787900804752,NaN,NaN,911.784642431215,829.192481806288,1054.37883281626,617.787900804752,942.594190385041,388.595418998464,688.215357568785,370.807518193712,545.621167183745,582.212099195248,657.405809614959,811.404581001536,0,4,0,0,0,0,vertical,vertical,vertical,horizontal,horizontal,vertical
1c,16,100143,4,42,234,19,F,NA,variable,homogeneous,3,present,0.851478099822998,1,vertical,vertical,1,1.02351655093106,green,1,3,956.993676208043,800.942742169714,547.481642470899,635.489140744817,956.993676208043,800.942742169714,895.524681321058,363.568117085469,547.481642470899,635.489140744817,0,0,0,0,0,0,4,0,0,NaN,NaN,NaN,vertical,vertical,vertical,none,none,none
1c,16,100143,4,43,235,19,F,NA,variable,homogeneous,6,absent,0.881824016571045,1,vertical,vertical,1,1.04704524820501,green,3,NaN,956.993676208043,399.057257830286,NaN,NaN,895.524681321058,836.431882914531,1052.5183575291,635.489140744817,956.993676208043,399.057257830286,704.475318678942,363.568117085469,547.481642470899,564.510859255183,643.006323791957,800.942742169714,0,0,4,0,0,0,vertical,horizontal,vertical,vertical,vertical,vertical
1c,16,100143,4,44,236,19,F,NA,variable,homogeneous,6,present,0.751449108123779,1,horizontal,horizontal,1,1.01175220229409,red,2,4,1042.51941165526,678.799333565612,746.982518841471,350.57236181288,853.017481158529,849.42763818712,1042.51941165526,678.799333565612,989.501930496736,429.371695378491,746.982518841471,350.57236181288,557.480588344736,521.200666434388,610.498069503264,770.628304621509,0,4,0,0,0,0,vertical,horizontal,vertical,vertical,vertical,vertical
1c,16,100143,4,45,237,19,F,NA,variable,homogeneous,4,absent,1.17597389221191,1,horizontal,horizontal,1,1.03528089956804,red,2,NaN,1006.29933356561,450.114760665419,NaN,NaN,949.885239334581,806.299333565612,1006.29933356561,450.114760665419,650.114760665419,393.700666434388,593.700666434388,749.885239334581,0,0,0,0,0,4,0,0,NaN,NaN,vertical,horizontal,horizontal,vertical,none,none
1c,16,100143,4,46,238,19,F,NA,variable,homogeneous,6,absent,0.905894994735718,0,horizontal,vertical,1,0.905873064561324,green,1,NaN,725.445215295702,843.857712770574,NaN,NaN,725.445215295702,843.857712770574,973.909581815937,786.495193912888,1048.46436652023,542.637481142314,874.554784704298,356.142287229426,626.090418184063,413.504806087112,551.535633479765,657.362518857686,4,0,0,0,0,0,horizontal,horizontal,vertical,horizontal,vertical,vertical
1c,16,100143,4,47,239,19,F,NA,variable,homogeneous,3,absent,1.2832989692688,1,horizontal,horizontal,1,0.752936532280662,red,2,NaN,1046.31108570371,665.998856501143,NaN,NaN,619.68777079743,780.31222920257,1046.31108570371,665.998856501143,734.001143498857,353.688914296288,0,0,0,0,0,0,0,4,0,NaN,NaN,NaN,vertical,horizontal,horizontal,none,none,none
1c,16,100143,4,48,240,19,F,NA,variable,homogeneous,3,absent,0.987827062606812,1,vertical,vertical,1,0.729407835006714,red,1,NaN,1008.88377129369,746.261991269517,NaN,NaN,1008.88377129369,746.261991269517,822.224714400653,345.970351986605,568.891514305654,707.767656743878,0,0,0,0,0,0,4,0,0,NaN,NaN,NaN,vertical,vertical,horizontal,none,none,none
1c,16,100143,4,49,241,19,F,NA,variable,homogeneous,3,absent,0.898887157440186,1,vertical,vertical,1,0.752936532280662,green,1,NaN,738.309916622085,847.425410200379,NaN,NaN,738.309916622085,847.425410200379,1045.12173246427,529.712474266665,616.568350913644,422.862115532956,0,0,0,0,0,0,4,0,0,NaN,NaN,NaN,vertical,horizontal,vertical,none,none,none
1c,16,100143,4,50,242,19,F,NA,variable,homogeneous,4,absent,0.956315040588379,1,horizontal,horizontal,1,0.764700880917636,green,2,NaN,1054.84466088987,591.100628340862,NaN,NaN,808.899371659138,854.844660889869,1054.84466088987,591.100628340862,791.100628340862,345.155339110131,545.155339110131,608.899371659138,0,0,0,0,0,4,0,0,NaN,NaN,horizontal,horizontal,horizontal,vertical,none,none
1c,16,100143,4,51,243,19,F,NA,variable,homogeneous,3,absent,0.710968017578125,1,horizontal,horizontal,1,0.752936532280662,red,1,NaN,664.870587620533,816.252264519889,NaN,NaN,664.870587620533,816.252264519889,1054.84466088987,608.899371659138,680.284751489598,374.848363820974,0,0,0,0,0,0,4,0,0,NaN,NaN,NaN,horizontal,vertical,vertical,none,none,none
1c,16,100143,4,52,244,19,F,NA,variable,homogeneous,5,present,0.702386856079102,1,vertical,vertical,1,0.858815670013428,green,4,3,751.343706178981,349.685068220846,1023.02802532055,476.373546837184,692.232343256122,831.108485694346,986.495193912888,773.909581815937,1023.02802532055,476.373546837184,751.343706178981,349.685068220846,546.900731331463,568.923317431687,0,0,0,0,0,4,0,NaN,horizontal,vertical,horizontal,vertical,vertical,none
1c,16,100143,4,53,245,19,F,NA,variable,homogeneous,6,present,1.27464199066162,1,vertical,vertical,1,0.705879137732766,red,3,6,1027.20666366803,484.232422566416,572.793336331966,715.767577433584,786.654331158049,854.650531362416,1013.86099482608,738.882953928832,1027.20666366803,484.232422566416,813.345668841951,345.349468637584,586.139005173917,461.117046071168,572.793336331966,715.767577433584,0,0,4,0,0,0,horizontal,horizontal,vertical,horizontal,vertical,vertical
