experiment,subject,uniqueID,block,trial,trial_cumulative,age,gender,color_cond_blocking,color_history,shape_type,set_size,distractor,rt,acc,target_orient,response_key,response_made,iti,target_color,target_item,distractor_item,target_X,target_Y,distractor_X,distractor_Y,item1_X,item1_Y,item2_X,item2_Y,item3_X,item3_Y,item4_X,item4_Y,item5_X,item5_Y,item6_X,item6_Y,item1_shape,item2_shape,item3_shape,item4_shape,item5_shape,item6_shape,item1_line,item2_line,item3_line,item4_line,item5_line,item6_line
1c,17,100158,1,1,1,21,M,NA,variable,homogeneous,4,present,1.14380407333374,1,horizontal,horizontal,1,1.02352054595947,green,3,1,938.882953928832,386.139005173917,661.117046071168,813.860994826083,661.117046071168,813.860994826083,1013.86099482608,738.882953928832,938.882953928832,386.139005173917,586.139005173917,461.117046071168,0,0,0,0,0,0,4,0,NaN,NaN,vertical,vertical,horizontal,horizontal,none,none
1c,17,100158,1,2,2,21,M,NA,variable,homogeneous,5,absent,NaN,0,vertical,none,0,0.92940486907959,green,5,NaN,546.39691668109,573.345241866748,NaN,NaN,696.282156015671,832.954091698863,989.501930496736,770.628304621509,1020.83647796503,472.5,746.982518841471,350.57236181288,546.39691668109,573.345241866748,0,0,0,0,0,0,4,NaN,horizontal,vertical,vertical,vertical,vertical,none
1c,17,100158,1,3,3,21,M,NA,variable,homogeneous,6,absent,0.755980014801025,1,horizontal,horizontal,1,0.694115676879883,green,3,NaN,973.909581815937,413.504806087112,NaN,NaN,874.554784704298,843.857712770574,1048.46436652023,657.362518857686,973.909581815937,413.504806087112,725.445215295702,356.142287229426,551.535633479765,542.637481142314,626.090418184063,786.495193912888,0,0,4,0,0,0,vertical,horizontal,horizontal,vertical,vertical,vertical
1c,17,100158,1,4,4,21,M,NA,variable,homogeneous,3,absent,0.753777980804443,1,vertical,vertical,1,0.717644596099854,green,3,NaN,545.155339110131,608.899371659138,NaN,NaN,935.129412379467,816.252264519889,919.715248510402,374.848363820974,545.155339110131,608.899371659138,0,0,0,0,0,0,0,0,4,NaN,NaN,NaN,vertical,horizontal,vertical,none,none,none
1c,17,100158,1,5,5,21,M,NA,variable,homogeneous,6,absent,0.718055963516235,1,vertical,vertical,1,0.670586757659912,red,3,NaN,1043.85771277057,525.445215295702,NaN,NaN,742.637481142314,848.464366520235,986.495193912888,773.909581815937,1043.85771277057,525.445215295702,857.362518857686,351.535633479765,613.504806087112,426.090418184063,556.142287229426,674.554784704298,0,0,4,0,0,0,horizontal,horizontal,vertical,horizontal,horizontal,horizontal
1c,17,100158,1,6,6,21,M,NA,variable,homogeneous,5,absent,1.01895403862,1,vertical,vertical,1,0.905875949859619,red,3,NaN,826.654758133252,346.39691668109,NaN,NaN,927.5,820.836477965032,1049.42763818712,546.982518841471,826.654758133252,346.39691668109,567.045908301137,496.282156015671,629.371695378491,789.501930496736,0,0,0,0,4,0,0,NaN,horizontal,horizontal,vertical,horizontal,horizontal,none
1c,17,100158,1,7,7,21,M,NA,variable,homogeneous,3,present,0.911320924758911,1,horizontal,horizontal,1,0.988227167129517,red,2,1,1020.83647796503,727.5,579.163522034968,727.5,579.163522034968,727.5,1020.83647796503,727.5,800,345,0,0,0,0,0,0,0,4,0,NaN,NaN,NaN,vertical,horizontal,vertical,none,none,none
1c,17,100158,1,8,8,21,M,NA,variable,homogeneous,5,absent,0.911025047302246,1,horizontal,horizontal,1,0.858818111419678,red,3,NaN,895.524681321058,363.568117085469,NaN,NaN,861.690083377915,847.425410200379,1054.37883281626,617.787900804752,895.524681321058,363.568117085469,604.658667004661,436.089159529932,583.747735480111,735.129412379467,0,0,0,0,4,0,0,NaN,vertical,vertical,horizontal,horizontal,vertical,none
1c,17,100158,1,9,9,21,M,NA,variable,homogeneous,4,absent,0.834543943405151,1,vertical,vertical,1,0.670586757659912,green,1,NaN,870.287525733335,845.121732464271,NaN,NaN,870.287525733335,845.121732464271,1045.12173246427,529.712474266665,729.712474266665,354.878267535729,554.878267535729,670.287525733335,0,0,0,0,4,0,0,0,NaN,NaN,vertical,horizontal,horizontal,vertical,none,none
1c,17,100158,1,10,10,21,M,NA,variable,homogeneous,6,absent,0.832290887832642,1,horizontal,horizontal,1,0.835289192199707,green,4,NaN,839.890788585259,348.13947314824,NaN,NaN,760.109211414741,851.86052685176,998.172220171528,760.476699717708,1038.06300875679,508.616172865948,839.890788585259,348.13947314824,601.827779828472,439.523300282291,561.936991243214,691.383827134052,0,0,0,4,0,0,horizontal,horizontal,horizontal,horizontal,horizontal,horizontal
1c,17,100158,1,11,11,21,M,NA,variable,homogeneous,5,present,0.754223823547363,1,vertical,vertical,1,1.05881392478943,green,1,5,704.475318678942,836.431882914531,545.621167183745,582.212099195248,704.475318678942,836.431882914531,995.341332995339,763.910840470068,1016.25226451989,464.870587620533,738.309916622085,352.574589799621,545.621167183745,582.212099195248,0,0,4,0,0,0,0,NaN,vertical,vertical,vertical,horizontal,horizontal,none
1c,17,100158,1,12,12,21,M,NA,variable,homogeneous,3,absent,1.14369511604309,1,vertical,vertical,1,0.917640409469604,green,1,NaN,653.738008730483,808.883771293693,NaN,NaN,653.738008730483,808.883771293693,1054.0296480134,622.224714400653,692.232343256122,368.891514305654,0,0,0,0,0,0,4,0,0,NaN,NaN,NaN,vertical,vertical,vertical,none,none,none
1c,17,100158,1,13,13,21,M,NA,variable,homogeneous,6,present,0.678992986679077,1,horizontal,horizontal,1,0.999991626739502,green,6,3,570.807518193712,711.784642431215,1029.19248180629,488.215357568785,782.212099195248,854.378832816255,1011.40458100154,742.594190385041,1029.19248180629,488.215357568785,817.787900804752,345.621167183745,588.595418998464,457.40580961496,570.807518193712,711.784642431215,0,0,0,0,0,4,horizontal,vertical,horizontal,horizontal,horizontal,horizontal
1c,17,100158,1,14,14,21,M,NA,variable,homogeneous,3,absent,0.607362985610962,1,horizontal,horizontal,1,0.941169328689575,red,2,NaN,1027.20666366803,715.767577433584,NaN,NaN,586.139005173917,738.882953928832,1027.20666366803,715.767577433584,786.654331158049,345.349468637584,0,0,0,0,0,0,0,4,0,NaN,NaN,NaN,horizontal,horizontal,vertical,none,none,none
1c,17,100158,1,15,15,21,M,NA,variable,homogeneous,6,present,0.675254106521606,1,vertical,vertical,1,0.77646689414978,green,2,5,1049.42763818712,653.017481158529,550.57236181288,546.982518841471,878.799333565612,842.519411655264,1049.42763818712,653.017481158529,970.628304621509,410.498069503264,721.200666434388,357.480588344736,550.57236181288,546.982518841471,629.371695378491,789.501930496736,0,4,0,0,0,0,vertical,vertical,vertical,horizontal,horizontal,vertical
1c,17,100158,1,16,16,21,M,NA,variable,homogeneous,5,absent,0.537436008453369,1,vertical,vertical,1,1.02352054595947,red,2,NaN,1025.15163617903,719.715248510402,NaN,NaN,755.719714694933,851.125977018113,1025.15163617903,719.715248510402,983.431649086356,422.862115532956,688.215357568785,370.807518193712,547.481642470899,635.489140744817,0,0,0,4,0,0,0,NaN,vertical,vertical,vertical,horizontal,vertical,none
1c,17,100158,1,17,17,21,M,NA,variable,homogeneous,4,present,0.659677982330322,0,horizontal,vertical,1,0.77646689414978,red,2,3,1054.65053136242,613.345668841951,813.345668841951,345.349468637584,786.654331158049,854.650531362416,1054.65053136242,613.345668841951,813.345668841951,345.349468637584,545.349468637584,586.654331158049,0,0,0,0,0,4,0,0,NaN,NaN,horizontal,horizontal,vertical,horizontal,none,none
1c,17,100158,1,18,18,21,M,NA,variable,homogeneous,4,absent,1.03573894500732,1,horizontal,horizontal,1,0.729409055709839,green,1,NaN,786.654331158049,854.650531362416,NaN,NaN,786.654331158049,854.650531362416,1054.65053136242,613.345668841951,813.345668841951,345.349468637584,545.349468637584,586.654331158049,0,0,0,0,4,0,0,0,NaN,NaN,horizontal,horizontal,horizontal,horizontal,none,none
1c,17,100158,1,19,19,21,M,NA,variable,homogeneous,6,present,0.78740406036377,1,vertical,vertical,1,0.729409055709839,green,2,5,1054.37883281626,617.787900804752,545.621167183745,582.212099195248,911.784642431215,829.192481806288,1054.37883281626,617.787900804752,942.594190385041,388.595418998464,688.215357568785,370.807518193712,545.621167183745,582.212099195248,657.405809614959,811.404581001536,0,4,0,0,0,0,horizontal,vertical,horizontal,vertical,horizontal,vertical
1c,17,100158,1,20,20,21,M,NA,variable,homogeneous,4,present,0.668220043182373,1,horizontal,horizontal,1,0.847053651809692,green,3,2,935.129412379467,383.747735480111,1016.25226451989,735.129412379467,664.870587620533,816.252264519889,1016.25226451989,735.129412379467,935.129412379467,383.747735480111,583.747735480111,464.870587620533,0,0,0,0,0,0,4,0,NaN,NaN,vertical,vertical,horizontal,vertical,none,none
1c,17,100158,1,21,21,21,M,NA,variable,homogeneous,3,present,0.550141096115112,1,horizontal,horizontal,1,0.823524732589722,green,2,1,1034.72873763037,500.363562235235,768.923317431687,853.099268668537,768.923317431687,853.099268668537,1034.72873763037,500.363562235235,596.34794493794,446.537169096228,0,0,0,0,0,0,0,4,0,NaN,NaN,NaN,horizontal,horizontal,vertical,none,none,none
1c,17,100158,1,22,22,21,M,NA,variable,homogeneous,4,absent,0.513857126235962,1,horizontal,horizontal,1,0.635293378829956,green,4,NaN,570.807518193712,488.215357568785,NaN,NaN,688.215357568785,829.192481806288,1029.19248180629,711.784642431215,911.784642431215,370.807518193712,570.807518193712,488.215357568785,0,0,0,0,0,0,0,4,NaN,NaN,vertical,vertical,horizontal,horizontal,none,none
1c,17,100158,1,23,23,21,M,NA,variable,homogeneous,3,present,0.588865041732788,1,horizontal,horizontal,1,0.823524732589722,green,1,3,661.117046071168,813.860994826083,684.232422566416,372.793336331966,661.117046071168,813.860994826083,1054.65053136242,613.345668841951,684.232422566416,372.793336331966,0,0,0,0,0,0,4,0,0,NaN,NaN,NaN,horizontal,horizontal,vertical,none,none,none
1c,17,100158,1,24,24,21,M,NA,variable,homogeneous,5,present,0.976690053939819,1,vertical,vertical,1,0.788231353759766,red,5,3,613.504806087112,773.909581815937,848.656293821019,349.685068220846,907.767656743878,831.108485694346,1053.09926866854,568.923317431687,848.656293821019,349.685068220846,576.971974679454,476.373546837184,613.504806087112,773.909581815937,0,0,0,0,0,0,4,NaN,horizontal,horizontal,horizontal,vertical,vertical,none
1c,17,100158,1,25,25,21,M,NA,variable,homogeneous,3,present,0.683327913284302,0,horizontal,vertical,1,0.952933788299561,red,2,3,844.280285305067,348.874022981887,560.378381699593,687.215136548046,995.341332995339,763.910840470068,844.280285305067,348.874022981887,560.378381699593,687.215136548046,0,0,0,0,0,0,0,4,0,NaN,NaN,NaN,horizontal,horizontal,horizontal,none,none,none
1c,17,100158,1,26,26,21,M,NA,variable,homogeneous,6,present,0.757575035095215,1,vertical,vertical,1,0.999991626739502,red,6,2,547.481642470899,635.489140744817,956.993676208043,800.942742169714,704.475318678942,836.431882914531,956.993676208043,800.942742169714,1052.5183575291,564.510859255183,895.524681321058,363.568117085469,643.006323791957,399.057257830286,547.481642470899,635.489140744817,0,0,0,0,0,4,horizontal,horizontal,vertical,vertical,horizontal,vertical
1c,17,100158,1,27,27,21,M,NA,variable,homogeneous,5,absent,0.786014080047607,1,horizontal,horizontal,1,0.647057838439941,red,5,NaN,572.793336331966,715.767577433584,NaN,NaN,839.890788585259,851.86052685176,1051.86052685176,639.890788585259,915.767577433584,372.793336331966,619.68777079743,419.68777079743,572.793336331966,715.767577433584,0,0,0,0,0,0,4,NaN,vertical,horizontal,horizontal,vertical,horizontal,none
1c,17,100158,1,28,28,21,M,NA,variable,homogeneous,3,absent,0.596007108688354,1,horizontal,horizontal,1,0.729409055709839,red,1,NaN,808.899371659138,854.844660889869,NaN,NaN,808.899371659138,854.844660889869,1016.25226451989,464.870587620533,574.848363820974,480.284751489598,0,0,0,0,0,0,4,0,0,NaN,NaN,NaN,horizontal,vertical,horizontal,none,none,none
1c,17,100158,1,29,29,21,M,NA,variable,homogeneous,4,present,0.604133129119873,1,horizontal,horizontal,1,0.999991626739502,red,2,3,1020.83647796503,472.5,672.5,379.163522034968,927.5,820.836477965032,1020.83647796503,472.5,672.5,379.163522034968,579.163522034968,727.5,0,0,0,0,0,4,0,0,NaN,NaN,horizontal,horizontal,vertical,horizontal,none,none
1c,17,100158,1,30,30,21,M,NA,variable,homogeneous,4,present,0.659633159637451,1,vertical,vertical,1,0.964698247909546,green,4,1,545.349468637584,586.654331158049,786.654331158049,854.650531362416,786.654331158049,854.650531362416,1054.65053136242,613.345668841951,813.345668841951,345.349468637584,545.349468637584,586.654331158049,0,0,0,0,0,0,0,4,NaN,NaN,horizontal,horizontal,vertical,vertical,none,none
1c,17,100158,1,31,31,21,M,NA,variable,homogeneous,3,present,0.671654939651489,1,vertical,vertical,1,0.917640409469604,green,1,2,636.089159529932,795.341332995339,1051.12597701811,644.280285305067,636.089159529932,795.341332995339,1051.12597701811,644.280285305067,712.784863451954,360.378381699593,0,0,0,0,0,0,4,0,0,NaN,NaN,NaN,vertical,horizontal,horizontal,none,none,none
1c,17,100158,1,32,32,21,M,NA,variable,homogeneous,3,absent,0.643695831298828,1,horizontal,horizontal,1,0.729409055709839,green,2,NaN,1023.02802532055,723.626453162816,NaN,NaN,581.422338320961,731.334709102064,1023.02802532055,723.626453162816,795.549636358493,345.03883773512,0,0,0,0,0,0,0,4,0,NaN,NaN,NaN,vertical,horizontal,horizontal,none,none,none
1c,17,100158,1,33,33,21,M,NA,variable,homogeneous,5,absent,0.676704883575439,1,horizontal,horizontal,1,0.799995813369751,green,2,NaN,963.910840470068,795.341332995339,NaN,NaN,664.870587620533,816.252264519889,963.910840470068,795.341332995339,1036.43188291453,504.475318678942,782.212099195248,345.621167183745,552.574589799621,538.309916622085,0,0,0,4,0,0,0,NaN,horizontal,horizontal,vertical,vertical,horizontal,none
1c,17,100158,1,34,34,21,M,NA,variable,homogeneous,3,absent,0.58769702911377,1,horizontal,horizontal,1,1.07057838439941,green,1,NaN,980.31222920257,780.31222920257,NaN,NaN,980.31222920257,780.31222920257,865.998856501143,353.688914296288,553.688914296288,665.998856501143,0,0,0,0,0,0,4,0,0,NaN,NaN,NaN,horizontal,vertical,vertical,none,none,none
1c,17,100158,1,35,35,21,M,NA,variable,homogeneous,4,absent,0.661357879638672,1,horizontal,horizontal,1,0.670586757659912,red,2,NaN,983.431649086356,777.137884467044,NaN,NaN,622.862115532956,783.431649086356,983.431649086356,777.137884467044,977.137884467044,416.568350913644,616.568350913644,422.862115532956,0,0,0,0,0,4,0,0,NaN,NaN,vertical,horizontal,horizontal,horizontal,none,none
1c,17,100158,1,36,36,21,M,NA,variable,homogeneous,3,absent,0.582389116287231,1,vertical,vertical,1,0.6,red,3,NaN,786.654331158049,345.349468637584,NaN,NaN,586.139005173917,738.882953928832,1027.20666366803,715.767577433584,786.654331158049,345.349468637584,0,0,0,0,0,0,0,0,4,NaN,NaN,NaN,horizontal,vertical,vertical,none,none,none
1c,17,100158,1,37,37,21,M,NA,variable,homogeneous,6,absent,0.663663148880005,1,vertical,vertical,1,1.05881392478943,green,2,NaN,1050.31493177915,648.656293821019,NaN,NaN,883.019879386575,841.107236777826,1050.31493177915,648.656293821019,967.295052392579,407.549057043193,716.980120613425,358.892763222174,549.685068220846,551.343706178981,632.704947607421,792.450942956807,0,4,0,0,0,0,vertical,vertical,horizontal,horizontal,horizontal,horizontal
1c,17,100158,1,38,38,21,M,NA,variable,homogeneous,4,absent,0.710345983505249,1,vertical,vertical,1,1.05881392478943,red,3,NaN,721.200666434388,357.480588344736,NaN,NaN,878.799333565612,842.519411655264,1042.51941165526,521.200666434388,721.200666434388,357.480588344736,557.480588344736,678.799333565612,0,0,0,0,0,0,4,0,NaN,NaN,vertical,vertical,vertical,horizontal,none,none
1c,17,100158,1,39,39,21,M,NA,variable,homogeneous,6,present,0.642954111099243,1,horizontal,horizontal,1,0.917640409469604,red,5,3,545.155339110131,591.100628340862,935.129412379467,383.747735480111,919.715248510402,825.151636179026,1054.84466088987,608.899371659138,935.129412379467,383.747735480111,680.284751489598,374.848363820974,545.155339110131,591.100628340862,664.870587620533,816.252264519889,0,0,0,0,4,0,horizontal,horizontal,vertical,horizontal,horizontal,horizontal
1c,17,100158,1,40,40,21,M,NA,variable,homogeneous,6,present,0.54926609992981,1,vertical,vertical,1,0.870582571029663,red,5,2,626.090418184063,413.504806087112,973.909581815937,786.495193912888,725.445215295702,843.857712770574,973.909581815937,786.495193912888,1048.46436652023,542.637481142314,874.554784704298,356.142287229426,626.090418184063,413.504806087112,551.535633479765,657.362518857686,0,0,0,0,4,0,vertical,horizontal,horizontal,horizontal,vertical,horizontal
1c,17,100158,1,41,41,21,M,NA,variable,homogeneous,5,present,0.541378021240234,1,vertical,vertical,1,1.04704946517944,red,2,5,1054.96116226488,604.450363641507,591.116228706307,746.261991269517,874.554784704298,843.857712770574,1054.96116226488,604.450363641507,883.019879386575,358.892763222174,596.34794493794,446.537169096228,591.116228706307,746.261991269517,0,0,0,4,0,0,0,NaN,horizontal,vertical,horizontal,horizontal,vertical,none
1c,17,100158,1,42,42,21,M,NA,variable,homogeneous,5,present,0.414326906204224,0,horizontal,vertical,1,0.694115676879883,red,2,5,1048.46436652023,657.362518857686,565.271262369628,699.636437764765,822.224714400653,854.029648013395,1048.46436652023,657.362518857686,931.334709102064,381.422338320961,632.704947607421,407.549057043193,565.271262369628,699.636437764765,0,0,0,4,0,0,0,NaN,vertical,horizontal,horizontal,vertical,vertical,none
1c,17,100158,1,43,43,21,M,NA,variable,homogeneous,3,present,0.565424919128418,1,vertical,vertical,1,0.92940486907959,green,3,2,646.537169096228,396.34794493794,1053.09926866854,568.923317431687,700.363562235235,834.728737630372,1053.09926866854,568.923317431687,646.537169096228,396.34794493794,0,0,0,0,0,0,0,0,4,NaN,NaN,NaN,vertical,horizontal,vertical,none,none,none
1c,17,100158,1,44,44,21,M,NA,variable,homogeneous,6,absent,0.888292074203491,1,vertical,vertical,1,0.964698247909546,red,1,NaN,672.5,820.836477965032,NaN,NaN,672.5,820.836477965032,927.5,820.836477965032,1055,600,927.5,379.163522034968,672.5,379.163522034968,545,600,4,0,0,0,0,0,vertical,vertical,horizontal,horizontal,horizontal,horizontal
1c,17,100158,1,45,45,21,M,NA,variable,homogeneous,6,absent,0.551711082458496,1,vertical,vertical,1,0.682351217269897,green,4,NaN,777.775285599347,345.970351986605,NaN,NaN,822.224714400653,854.029648013395,1031.10848569435,707.767656743878,1008.88377129369,453.738008730483,777.775285599347,345.970351986605,568.891514305654,492.232343256122,591.116228706307,746.261991269517,0,0,0,4,0,0,horizontal,vertical,horizontal,vertical,vertical,vertical
1c,17,100158,1,46,46,21,M,NA,variable,homogeneous,5,present,0.470298051834106,1,vertical,vertical,1,0.964698247909546,green,4,1,646.537169096228,396.34794493794,804.450363641507,854.96116226488,804.450363641507,854.96116226488,1043.85771277057,674.554784704298,946.261991269517,391.116228706307,646.537169096228,396.34794493794,558.892763222174,683.019879386575,0,0,0,0,0,4,0,NaN,vertical,horizontal,horizontal,vertical,horizontal,none
1c,17,100158,1,47,47,21,M,NA,variable,homogeneous,6,present,0.603440046310425,1,horizontal,horizontal,1,0.75293797492981,red,6,2,572.793336331966,715.767577433584,1013.86099482608,738.882953928832,786.654331158049,854.650531362416,1013.86099482608,738.882953928832,1027.20666366803,484.232422566416,813.345668841951,345.349468637584,586.139005173917,461.117046071168,572.793336331966,715.767577433584,0,0,0,0,0,4,horizontal,vertical,vertical,horizontal,horizontal,horizontal
1c,17,100158,1,48,48,21,M,NA,variable,homogeneous,4,absent,0.55414605140686,1,vertical,vertical,1,0.741173515319824,red,3,NaN,870.287525733335,354.878267535729,NaN,NaN,729.712474266665,845.121732464271,1045.12173246427,670.287525733335,870.287525733335,354.878267535729,554.878267535729,529.712474266665,0,0,0,0,0,0,4,0,NaN,NaN,vertical,horizontal,vertical,vertical,none,none
1c,17,100158,1,49,49,21,M,NA,variable,homogeneous,3,present,0.55095911026001,1,vertical,vertical,1,1.07057838439941,red,2,1,1054.37883281626,582.212099195248,688.215357568785,829.192481806288,688.215357568785,829.192481806288,1054.37883281626,582.212099195248,657.405809614959,388.595418998464,0,0,0,0,0,0,0,4,0,NaN,NaN,NaN,horizontal,vertical,vertical,none,none,none
1c,17,100158,1,50,50,21,M,NA,variable,homogeneous,6,absent,0.647434949874878,1,horizontal,horizontal,1,0.670586757659912,red,4,NaN,716.980120613425,358.892763222174,NaN,NaN,883.019879386575,841.107236777826,1050.31493177915,648.656293821019,967.295052392579,407.549057043193,716.980120613425,358.892763222174,549.685068220846,551.343706178981,632.704947607421,792.450942956807,0,0,0,4,0,0,horizontal,horizontal,horizontal,horizontal,vertical,horizontal
1c,17,100158,1,51,51,21,M,NA,variable,homogeneous,4,present,0.761442899703979,1,vertical,vertical,1,0.635293378829956,red,4,1,545.970351986605,577.775285599347,777.775285599347,854.029648013395,777.775285599347,854.029648013395,1054.0296480134,622.224714400653,822.224714400653,345.970351986605,545.970351986605,577.775285599347,0,0,0,0,0,0,0,4,NaN,NaN,horizontal,vertical,horizontal,vertical,none,none
1c,17,100158,1,52,52,21,M,NA,variable,homogeneous,3,present,0.602735042572021,1,vertical,vertical,1,0.905875949859619,red,2,3,899.636437764765,365.271262369628,546.900731331463,631.076682568313,953.462830903772,803.65205506206,899.636437764765,365.271262369628,546.900731331463,631.076682568313,0,0,0,0,0,0,0,4,0,NaN,NaN,NaN,horizontal,vertical,vertical,none,none,none
1c,17,100158,1,53,53,21,M,NA,variable,homogeneous,6,present,0.818743944168091,1,horizontal,horizontal,1,0.988227167129517,green,1,4,861.690083377915,847.425410200379,738.309916622085,352.574589799621,861.690083377915,847.425410200379,1045.12173246427,670.287525733335,983.431649086356,422.862115532956,738.309916622085,352.574589799621,554.878267535729,529.712474266665,616.568350913644,777.137884467044,4,0,0,0,0,0,horizontal,vertical,vertical,vertical,horizontal,horizontal
1c,17,100158,1,54,54,21,M,NA,variable,homogeneous,5,present,0.501062870025635,1,horizontal,horizontal,1,0.894111490249634,green,4,2,610.498069503264,429.371695378491,1053.60308331891,626.654758133252,853.017481158529,849.42763818712,1053.60308331891,626.654758133252,903.717843984329,367.045908301137,610.498069503264,429.371695378491,579.163522034968,727.5,0,0,0,0,0,4,0,NaN,vertical,vertical,vertical,horizontal,vertical,none
1c,17,100158,1,55,55,21,M,NA,variable,homogeneous,5,present,0.604460000991821,1,horizontal,horizontal,1,0.647057838439941,red,4,2,700.363562235235,365.271262369628,1018.57766167904,731.334709102064,742.637481142314,848.464366520235,1018.57766167904,731.334709102064,992.450942956807,432.704947607421,700.363562235235,365.271262369628,545.970351986605,622.224714400653,0,0,0,0,0,4,0,NaN,vertical,vertical,vertical,horizontal,vertical,none
1c,17,100158,1,56,56,21,M,NA,variable,homogeneous,6,absent,0.413142919540405,1,horizontal,horizontal,1,0.835289192199707,red,5,NaN,632.704947607421,407.549057043193,NaN,NaN,716.980120613425,841.107236777826,967.295052392579,792.450942956807,1050.31493177915,551.343706178981,883.019879386575,358.892763222174,632.704947607421,407.549057043193,549.685068220846,648.656293821019,0,0,0,0,4,0,horizontal,horizontal,horizontal,horizontal,horizontal,horizontal
1c,17,100158,1,57,57,21,M,NA,variable,homogeneous,5,absent,0.774749040603638,1,vertical,vertical,1,0.647057838439941,green,2,NaN,980.31222920257,780.31222920257,NaN,NaN,684.232422566416,827.206663668034,980.31222920257,780.31222920257,1027.20666366803,484.232422566416,760.109211414741,348.13947314824,548.13947314824,560.109211414741,0,0,0,4,0,0,0,NaN,horizontal,vertical,vertical,vertical,horizontal,none
1c,17,100158,1,58,58,21,M,NA,variable,homogeneous,4,present,0.718112945556641,1,vertical,vertical,1,0.6,green,2,1,1048.46436652023,657.362518857686,742.637481142314,848.464366520235,742.637481142314,848.464366520235,1048.46436652023,657.362518857686,857.362518857686,351.535633479765,551.535633479765,542.637481142314,0,0,0,0,0,4,0,0,NaN,NaN,vertical,vertical,horizontal,vertical,none,none
1c,17,100158,1,59,59,21,M,NA,variable,homogeneous,5,present,0.541805028915405,1,horizontal,horizontal,1,0.647057838439941,green,3,4,923.626453162816,376.971974679454,626.090418184063,413.504806087112,831.076682568313,853.099268668537,1050.31493177915,648.656293821019,923.626453162816,376.971974679454,626.090418184063,413.504806087112,568.891514305654,707.767656743878,0,0,0,0,4,0,0,NaN,vertical,horizontal,horizontal,vertical,horizontal,none
1c,17,100158,1,60,60,21,M,NA,variable,homogeneous,4,absent,0.557486057281494,1,horizontal,horizontal,1,1.02352054595947,red,3,NaN,626.090418184063,413.504806087112,NaN,NaN,973.909581815937,786.495193912888,986.495193912888,426.090418184063,626.090418184063,413.504806087112,613.504806087112,773.909581815937,0,0,0,0,0,0,4,0,NaN,NaN,vertical,horizontal,horizontal,vertical,none,none
1c,17,100158,1,61,61,21,M,NA,variable,homogeneous,3,absent,0.673964023590088,1,vertical,vertical,1,1.04704946517944,red,1,NaN,861.690083377915,847.425410200379,NaN,NaN,861.690083377915,847.425410200379,983.431649086356,422.862115532956,554.878267535729,529.712474266665,0,0,0,0,0,0,4,0,0,NaN,NaN,NaN,vertical,horizontal,horizontal,none,none,none
1c,17,100158,1,62,62,21,M,NA,variable,homogeneous,5,absent,0.66905403137207,1,horizontal,horizontal,1,0.682351217269897,green,1,NaN,883.019879386575,841.107236777826,NaN,NaN,883.019879386575,841.107236777826,1054.96116226488,595.549636358493,874.554784704298,356.142287229426,591.116228706307,453.738008730483,596.34794493794,753.462830903772,0,0,4,0,0,0,0,NaN,horizontal,horizontal,horizontal,horizontal,horizontal,none
1c,17,100158,1,63,63,21,M,NA,variable,homogeneous,4,present,0.586611032485962,1,vertical,vertical,1,0.611764459609985,red,3,4,915.767577433584,372.793336331966,572.793336331966,484.232422566416,684.232422566416,827.206663668034,1027.20666366803,715.767577433584,915.767577433584,372.793336331966,572.793336331966,484.232422566416,0,0,0,0,0,0,4,0,NaN,NaN,horizontal,vertical,vertical,horizontal,none,none
1c,17,100158,1,64,64,21,M,NA,variable,homogeneous,4,absent,0.607829093933105,1,vertical,vertical,1,1.07057838439941,green,3,NaN,935.129412379467,383.747735480111,NaN,NaN,664.870587620533,816.252264519889,1016.25226451989,735.129412379467,935.129412379467,383.747735480111,583.747735480111,464.870587620533,0,0,0,0,0,0,4,0,NaN,NaN,vertical,vertical,vertical,vertical,none,none
1c,17,100158,2,1,65,21,M,NA,variable,homogeneous,6,absent,1.31526207923889,1,vertical,vertical,1,1.04704946517944,green,2,NaN,1008.88377129369,746.261991269517,NaN,NaN,777.775285599347,854.029648013395,1008.88377129369,746.261991269517,1031.10848569435,492.232343256122,822.224714400653,345.970351986605,591.116228706307,453.738008730483,568.891514305654,707.767656743878,0,4,0,0,0,0,vertical,vertical,horizontal,horizontal,horizontal,horizontal
1c,17,100158,2,2,66,21,M,NA,variable,homogeneous,5,absent,0.764266967773438,1,horizontal,horizontal,1,0.92940486907959,green,3,NaN,1031.10848569435,492.232343256122,NaN,NaN,676.373546837184,823.028025320546,973.909581815937,786.495193912888,1031.10848569435,492.232343256122,768.923317431687,346.900731331463,549.685068220846,551.343706178981,0,0,0,0,4,0,0,NaN,horizontal,vertical,horizontal,vertical,vertical,none
1c,17,100158,2,3,67,21,M,NA,variable,homogeneous,5,absent,0.582751035690308,1,horizontal,horizontal,1,0.764702434539795,green,5,NaN,545.155339110131,591.100628340862,NaN,NaN,712.784863451954,839.621618300407,1000.94274216971,756.993676208043,1011.40458100154,457.40580961496,729.712474266665,354.878267535729,545.155339110131,591.100628340862,0,0,0,0,0,0,4,NaN,vertical,vertical,vertical,vertical,horizontal,none
1c,17,100158,2,4,68,21,M,NA,variable,homogeneous,6,present,0.463963031768799,1,horizontal,horizontal,1,0.858818111419678,green,3,1,1038.06300875679,508.616172865948,760.109211414741,851.86052685176,760.109211414741,851.86052685176,998.172220171528,760.476699717708,1038.06300875679,508.616172865948,839.890788585259,348.13947314824,601.827779828472,439.523300282291,561.936991243214,691.383827134052,0,0,4,0,0,0,vertical,vertical,horizontal,horizontal,vertical,vertical
1c,17,100158,2,5,69,21,M,NA,variable,homogeneous,3,absent,0.681344032287598,1,vertical,vertical,1,0.799995813369751,red,1,NaN,891.383827134052,838.063008756786,NaN,NaN,891.383827134052,838.063008756786,960.476699717708,401.827779828472,548.13947314824,560.109211414741,0,0,0,0,0,0,4,0,0,NaN,NaN,NaN,vertical,horizontal,horizontal,none,none,none
1c,17,100158,2,6,70,21,M,NA,variable,homogeneous,5,present,0.677538871765137,1,vertical,vertical,1,0.717644596099854,red,2,1,1048.46436652023,657.362518857686,822.224714400653,854.029648013395,822.224714400653,854.029648013395,1048.46436652023,657.362518857686,931.334709102064,381.422338320961,632.704947607421,407.549057043193,565.271262369628,699.636437764765,0,0,0,4,0,0,0,NaN,vertical,vertical,vertical,horizontal,vertical,none
1c,17,100158,2,7,71,21,M,NA,variable,homogeneous,4,present,0.469025135040283,1,vertical,vertical,1,0.894111490249634,green,3,1,826.654758133252,346.39691668109,773.345241866748,853.60308331891,773.345241866748,853.60308331891,1053.60308331891,626.654758133252,826.654758133252,346.39691668109,546.39691668109,573.345241866748,0,0,0,0,0,0,4,0,NaN,NaN,vertical,horizontal,vertical,horizontal,none,none
1c,17,100158,2,8,72,21,M,NA,variable,homogeneous,5,present,0.737572908401489,1,horizontal,horizontal,1,0.729409055709839,red,2,1,1000.94274216971,756.993676208043,712.784863451954,839.621618300407,712.784863451954,839.621618300407,1000.94274216971,756.993676208043,1011.40458100154,457.40580961496,729.712474266665,354.878267535729,545.155339110131,591.100628340862,0,0,0,4,0,0,0,NaN,vertical,horizontal,vertical,vertical,horizontal,none
1c,17,100158,2,9,73,21,M,NA,variable,homogeneous,3,absent,0.837828874588013,1,vertical,vertical,1,0.870582571029663,red,2,NaN,1036.43188291453,695.524681321058,NaN,NaN,599.057257830286,756.993676208043,1036.43188291453,695.524681321058,764.510859255183,347.4816424709,0,0,0,0,0,0,0,4,0,NaN,NaN,NaN,horizontal,vertical,vertical,none,none,none
1c,17,100158,2,10,74,21,M,NA,variable,homogeneous,5,present,0.690582990646362,1,vertical,vertical,1,0.988227167129517,red,5,4,572.793336331966,715.767577433584,619.68777079743,419.68777079743,839.890788585259,851.86052685176,1051.86052685176,639.890788585259,915.767577433584,372.793336331966,619.68777079743,419.68777079743,572.793336331966,715.767577433584,0,0,0,0,0,0,4,NaN,horizontal,horizontal,horizontal,vertical,vertical,none
1c,17,100158,2,11,75,21,M,NA,variable,homogeneous,4,present,0.717399835586548,1,vertical,vertical,1,0.847053651809692,green,3,2,980.31222920257,419.68777079743,980.31222920257,780.31222920257,619.68777079743,780.31222920257,980.31222920257,780.31222920257,980.31222920257,419.68777079743,619.68777079743,419.68777079743,0,0,0,0,0,0,4,0,NaN,NaN,vertical,vertical,vertical,horizontal,none,none
1c,17,100158,2,12,76,21,M,NA,variable,homogeneous,4,absent,0.532754898071289,1,vertical,vertical,1,0.847053651809692,green,4,NaN,599.057257830286,443.006323791957,NaN,NaN,643.006323791957,800.942742169714,1000.94274216971,756.993676208043,956.993676208043,399.057257830286,599.057257830286,443.006323791957,0,0,0,0,0,0,0,4,NaN,NaN,horizontal,horizontal,vertical,vertical,none,none
1c,17,100158,2,13,77,21,M,NA,variable,homogeneous,3,absent,0.427523851394653,1,vertical,vertical,1,0.988227167129517,green,2,NaN,822.224714400653,345.970351986605,NaN,NaN,1008.88377129369,746.261991269517,822.224714400653,345.970351986605,568.891514305654,707.767656743878,0,0,0,0,0,0,0,4,0,NaN,NaN,NaN,horizontal,vertical,horizontal,none,none,none
1c,17,100158,2,14,78,21,M,NA,variable,homogeneous,3,present,0.466979026794434,1,vertical,vertical,1,0.941169328689575,green,2,1,1018.57766167904,468.665290897936,804.450363641507,854.96116226488,804.450363641507,854.96116226488,1018.57766167904,468.665290897936,576.971974679454,476.373546837184,0,0,0,0,0,0,0,4,0,NaN,NaN,NaN,vertical,vertical,vertical,none,none,none
1c,17,100158,2,15,79,21,M,NA,variable,homogeneous,3,absent,0.721696853637695,1,vertical,vertical,1,0.658822298049927,green,1,NaN,646.537169096228,803.65205506206,NaN,NaN,646.537169096228,803.65205506206,1053.09926866854,631.076682568313,700.363562235235,365.271262369628,0,0,0,0,0,0,4,0,0,NaN,NaN,NaN,vertical,horizontal,horizontal,none,none,none
1c,17,100158,2,16,80,21,M,NA,variable,homogeneous,6,absent,0.601318836212158,1,horizontal,horizontal,1,1.04704946517944,red,2,NaN,1042.51941165526,678.799333565612,NaN,NaN,853.017481158529,849.42763818712,1042.51941165526,678.799333565612,989.501930496736,429.371695378491,746.982518841471,350.57236181288,557.480588344736,521.200666434388,610.498069503264,770.628304621509,0,4,0,0,0,0,vertical,horizontal,horizontal,vertical,vertical,horizontal
1c,17,100158,2,17,81,21,M,NA,variable,homogeneous,4,present,0.599462032318115,1,horizontal,horizontal,1,1.09410730361938,red,1,4,791.100628340862,854.844660889869,545.155339110131,591.100628340862,791.100628340862,854.844660889869,1054.84466088987,608.899371659138,808.899371659138,345.155339110131,545.155339110131,591.100628340862,0,0,0,0,4,0,0,0,NaN,NaN,horizontal,horizontal,horizontal,horizontal,none,none
1c,17,100158,2,18,82,21,M,NA,variable,homogeneous,3,present,0.580278873443604,1,vertical,vertical,1,1.02352054595947,red,2,3,1032.95409169886,496.282156015671,593.700666434388,450.114760665419,773.345241866748,853.60308331891,1032.95409169886,496.282156015671,593.700666434388,450.114760665419,0,0,0,0,0,0,0,4,0,NaN,NaN,NaN,vertical,vertical,horizontal,none,none,none
1c,17,100158,2,19,83,21,M,NA,variable,homogeneous,4,present,0.655879974365234,1,horizontal,horizontal,1,0.6,red,4,1,561.936991243214,508.616172865948,708.616172865948,838.063008756786,708.616172865948,838.063008756786,1038.06300875679,691.383827134052,891.383827134052,361.936991243214,561.936991243214,508.616172865948,0,0,0,0,0,0,0,4,NaN,NaN,horizontal,horizontal,horizontal,horizontal,none,none
1c,17,100158,2,20,84,21,M,NA,variable,homogeneous,6,present,0.556699991226196,1,horizontal,horizontal,1,0.77646689414978,red,5,1,583.747735480111,464.870587620533,791.100628340862,854.844660889869,791.100628340862,854.844660889869,1016.25226451989,735.129412379467,1025.15163617903,480.284751489598,808.899371659138,345.155339110131,583.747735480111,464.870587620533,574.848363820974,719.715248510402,0,0,0,0,4,0,horizontal,vertical,horizontal,vertical,horizontal,horizontal
1c,17,100158,2,21,85,21,M,NA,variable,homogeneous,3,absent,0.637564182281494,1,horizontal,horizontal,1,0.682351217269897,red,1,NaN,616.568350913644,777.137884467044,NaN,NaN,616.568350913644,777.137884467044,1045.12173246427,670.287525733335,738.309916622085,352.574589799621,0,0,0,0,0,0,4,0,0,NaN,NaN,NaN,horizontal,horizontal,vertical,none,none,none
1c,17,100158,2,22,86,21,M,NA,variable,homogeneous,6,absent,0.636635065078735,1,vertical,vertical,1,0.905875949859619,red,3,NaN,1042.51941165526,521.200666434388,NaN,NaN,746.982518841471,849.42763818712,989.501930496736,770.628304621509,1042.51941165526,521.200666434388,853.017481158529,350.57236181288,610.498069503264,429.371695378491,557.480588344736,678.799333565612,0,0,4,0,0,0,horizontal,horizontal,vertical,vertical,horizontal,vertical
1c,17,100158,2,23,87,21,M,NA,variable,homogeneous,5,absent,0.586786031723022,1,vertical,vertical,1,0.658822298049927,green,4,NaN,557.480588344736,521.200666434388,NaN,NaN,949.885239334581,806.299333565612,1042.51941165526,521.200666434388,800,345,557.480588344736,521.200666434388,650.114760665419,806.299333565612,0,0,0,0,0,4,0,NaN,vertical,horizontal,vertical,vertical,horizontal,none
1c,17,100158,2,24,88,21,M,NA,variable,homogeneous,5,absent,0.937267065048218,1,vertical,vertical,1,0.92940486907959,red,4,NaN,700.363562235235,365.271262369628,NaN,NaN,742.637481142314,848.464366520235,1018.57766167904,731.334709102064,992.450942956807,432.704947607421,700.363562235235,365.271262369628,545.970351986605,622.224714400653,0,0,0,0,0,4,0,NaN,horizontal,horizontal,horizontal,vertical,vertical,none
1c,17,100158,2,25,89,21,M,NA,variable,homogeneous,4,present,0.67237377166748,1,horizontal,horizontal,1,1.01175608634949,green,1,3,973.909581815937,786.495193912888,626.090418184063,413.504806087112,973.909581815937,786.495193912888,986.495193912888,426.090418184063,626.090418184063,413.504806087112,613.504806087112,773.909581815937,0,0,0,0,4,0,0,0,NaN,NaN,horizontal,horizontal,vertical,horizontal,none,none
1c,17,100158,2,26,90,21,M,NA,variable,homogeneous,6,absent,0.641493082046509,1,vertical,vertical,1,0.964698247909546,red,2,NaN,1047.42541020038,661.690083377915,NaN,NaN,870.287525733335,845.121732464271,1047.42541020038,661.690083377915,977.137884467044,416.568350913644,729.712474266665,354.878267535729,552.574589799621,538.309916622085,622.862115532956,783.431649086356,0,4,0,0,0,0,horizontal,vertical,horizontal,horizontal,horizontal,vertical
1c,17,100158,2,27,91,21,M,NA,variable,homogeneous,5,absent,0.559925079345703,1,horizontal,horizontal,1,1.0823428440094,red,3,NaN,808.899371659138,345.155339110131,NaN,NaN,942.594190385041,811.404581001536,1045.12173246427,529.712474266665,808.899371659138,345.155339110131,560.378381699593,512.784863451954,643.006323791957,800.942742169714,0,0,0,0,4,0,0,NaN,vertical,horizontal,horizontal,vertical,horizontal,none
1c,17,100158,2,28,92,21,M,NA,variable,homogeneous,5,absent,0.548337936401367,1,vertical,vertical,1,1.04704946517944,red,4,NaN,777.775285599347,345.970351986605,NaN,NaN,668.665290897936,818.577661679039,967.295052392579,792.450942956807,1034.72873763037,500.363562235235,777.775285599347,345.970351986605,551.535633479765,542.637481142314,0,0,0,0,0,4,0,NaN,vertical,vertical,vertical,vertical,vertical,none
1c,17,100158,2,29,93,21,M,NA,variable,homogeneous,5,present,0.566932916641235,1,horizontal,horizontal,1,0.764702434539795,green,1,5,742.637481142314,848.464366520235,545.970351986605,622.224714400653,742.637481142314,848.464366520235,1018.57766167904,731.334709102064,992.450942956807,432.704947607421,700.363562235235,365.271262369628,545.970351986605,622.224714400653,0,0,4,0,0,0,0,NaN,horizontal,vertical,horizontal,vertical,horizontal,none
1c,17,100158,2,30,94,21,M,NA,variable,homogeneous,3,absent,0.881622076034546,1,horizontal,horizontal,1,0.764702434539795,green,2,NaN,1039.62161830041,512.784863451954,NaN,NaN,755.719714694933,851.125977018113,1039.62161830041,512.784863451954,604.658667004661,436.089159529932,0,0,0,0,0,0,0,4,0,NaN,NaN,NaN,vertical,horizontal,vertical,none,none,none
1c,17,100158,2,31,95,21,M,NA,variable,homogeneous,5,present,0.630820989608765,1,horizontal,horizontal,1,0.964698247909546,green,5,1,545.155339110131,608.899371659138,729.712474266665,845.121732464271,729.712474266665,845.121732464271,1011.40458100154,742.594190385041,1000.94274216971,443.006323791957,712.784863451954,360.378381699593,545.155339110131,608.899371659138,0,0,0,0,0,0,4,NaN,vertical,vertical,horizontal,horizontal,horizontal,none
1c,17,100158,2,32,96,21,M,NA,variable,homogeneous,6,absent,0.590884923934937,1,horizontal,horizontal,1,0.964698247909546,green,6,NaN,558.892763222174,683.019879386575,NaN,NaN,751.343706178981,850.314931779154,992.450942956807,767.295052392579,1041.10723677783,516.980120613425,848.656293821019,349.685068220846,607.549057043193,432.704947607421,558.892763222174,683.019879386575,0,0,0,0,0,4,horizontal,horizontal,horizontal,horizontal,horizontal,horizontal
1c,17,100158,2,33,97,21,M,NA,variable,homogeneous,5,absent,0.520239114761353,1,horizontal,horizontal,1,1.07057838439941,red,3,NaN,800,345,NaN,NaN,949.885239334581,806.299333565612,1042.51941165526,521.200666434388,800,345,557.480588344736,521.200666434388,650.114760665419,806.299333565612,0,0,0,0,4,0,0,NaN,vertical,vertical,horizontal,horizontal,vertical,none
1c,17,100158,2,34,98,21,M,NA,variable,homogeneous,4,absent,0.608798980712891,1,horizontal,horizontal,1,0.894111490249634,red,2,NaN,1052.5183575291,564.510859255183,NaN,NaN,835.489140744817,852.518357529101,1052.5183575291,564.510859255183,764.510859255183,347.4816424709,547.481642470899,635.489140744817,0,0,0,0,0,4,0,0,NaN,NaN,horizontal,horizontal,horizontal,horizontal,none,none
1c,17,100158,2,35,99,21,M,NA,variable,homogeneous,3,present,0.714193105697632,1,vertical,vertical,1,0.858818111419678,red,1,3,915.767577433584,827.206663668034,545.349468637584,586.654331158049,915.767577433584,827.206663668034,938.882953928832,386.139005173917,545.349468637584,586.654331158049,0,0,0,0,0,0,4,0,0,NaN,NaN,NaN,vertical,horizontal,vertical,none,none,none
1c,17,100158,2,36,100,21,M,NA,variable,homogeneous,6,present,0.804506063461304,1,vertical,vertical,1,0.999991626739502,red,3,4,1008.88377129369,453.738008730483,777.775285599347,345.970351986605,822.224714400653,854.029648013395,1031.10848569435,707.767656743878,1008.88377129369,453.738008730483,777.775285599347,345.970351986605,568.891514305654,492.232343256122,591.116228706307,746.261991269517,0,0,4,0,0,0,horizontal,vertical,vertical,horizontal,horizontal,horizontal
1c,17,100158,2,37,101,21,M,NA,variable,homogeneous,5,absent,0.595129013061523,1,vertical,vertical,1,0.717644596099854,green,2,NaN,1043.85771277057,674.554784704298,NaN,NaN,804.450363641507,854.96116226488,1043.85771277057,674.554784704298,946.261991269517,391.116228706307,646.537169096228,396.34794493794,558.892763222174,683.019879386575,0,0,0,4,0,0,0,NaN,vertical,vertical,vertical,vertical,vertical,none
1c,17,100158,2,38,102,21,M,NA,variable,homogeneous,4,absent,0.67761492729187,1,vertical,vertical,1,0.717644596099854,red,2,NaN,1041.10723677783,683.019879386575,NaN,NaN,716.980120613425,841.107236777826,1041.10723677783,683.019879386575,883.019879386575,358.892763222174,558.892763222174,516.980120613425,0,0,0,0,0,4,0,0,NaN,NaN,horizontal,vertical,vertical,vertical,none,none
1c,17,100158,2,39,103,21,M,NA,variable,homogeneous,4,absent,1.18492293357849,1,vertical,vertical,1,0.882347030639648,red,1,NaN,935.129412379467,816.252264519889,NaN,NaN,935.129412379467,816.252264519889,1016.25226451989,464.870587620533,664.870587620533,383.747735480111,583.747735480111,735.129412379467,0,0,0,0,4,0,0,0,NaN,NaN,vertical,horizontal,vertical,vertical,none,none
1c,17,100158,2,40,104,21,M,NA,variable,homogeneous,4,present,0.617392063140869,1,horizontal,horizontal,1,0.835289192199707,green,2,4,1000.94274216971,756.993676208043,599.057257830286,443.006323791957,643.006323791957,800.942742169714,1000.94274216971,756.993676208043,956.993676208043,399.057257830286,599.057257830286,443.006323791957,0,0,0,0,0,4,0,0,NaN,NaN,vertical,horizontal,vertical,vertical,none,none
1c,17,100158,2,41,105,21,M,NA,variable,homogeneous,6,present,0.741289138793945,1,vertical,vertical,1,0.964698247909546,red,3,5,1018.57766167904,468.665290897936,576.971974679454,476.373546837184,804.450363641507,854.96116226488,1023.02802532055,723.626453162816,1018.57766167904,468.665290897936,795.549636358493,345.03883773512,576.971974679454,476.373546837184,581.422338320961,731.334709102064,0,0,4,0,0,0,vertical,horizontal,vertical,vertical,vertical,horizontal
1c,17,100158,2,42,106,21,M,NA,variable,homogeneous,6,present,1.12571215629578,1,vertical,vertical,1,0.670586757659912,green,1,2,927.5,820.836477965032,1055,600,927.5,820.836477965032,1055,600,927.5,379.163522034968,672.5,379.163522034968,545,600,672.5,820.836477965032,4,0,0,0,0,0,vertical,horizontal,horizontal,horizontal,horizontal,vertical
1c,17,100158,2,43,107,21,M,NA,variable,homogeneous,4,present,0.600609064102173,1,vertical,vertical,1,0.611764459609985,red,3,1,672.5,379.163522034968,927.5,820.836477965032,927.5,820.836477965032,1020.83647796503,472.5,672.5,379.163522034968,579.163522034968,727.5,0,0,0,0,0,0,4,0,NaN,NaN,horizontal,horizontal,vertical,vertical,none,none
1c,17,100158,2,44,108,21,M,NA,variable,homogeneous,6,present,0.482023000717163,1,vertical,vertical,1,1.05881392478943,green,4,3,844.280285305067,348.874022981887,1039.62161830041,512.784863451954,755.719714694933,851.125977018113,995.341332995339,763.910840470068,1039.62161830041,512.784863451954,844.280285305067,348.874022981887,604.658667004661,436.089159529932,560.378381699593,687.215136548046,0,0,0,4,0,0,vertical,vertical,horizontal,vertical,horizontal,horizontal
1c,17,100158,2,45,109,21,M,NA,variable,homogeneous,5,present,0.72885799407959,1,horizontal,horizontal,1,1.03528500556946,red,5,4,557.480588344736,678.799333565612,650.114760665419,393.700666434388,800,855,1042.51941165526,678.799333565612,949.885239334581,393.700666434388,650.114760665419,393.700666434388,557.480588344736,678.799333565612,0,0,0,0,0,0,4,NaN,horizontal,horizontal,vertical,horizontal,horizontal,none
1c,17,100158,2,46,110,21,M,NA,variable,homogeneous,3,absent,0.814987897872925,1,horizontal,horizontal,1,0.964698247909546,red,2,NaN,977.137884467044,416.568350913644,NaN,NaN,870.287525733335,845.121732464271,977.137884467044,416.568350913644,552.574589799621,538.309916622085,0,0,0,0,0,0,0,4,0,NaN,NaN,NaN,vertical,horizontal,horizontal,none,none,none
1c,17,100158,2,47,111,21,M,NA,variable,homogeneous,6,absent,0.720267057418823,1,horizontal,horizontal,1,0.647057838439941,red,4,NaN,923.626453162816,376.971974679454,NaN,NaN,676.373546837184,823.028025320546,931.334709102064,818.577661679039,1054.96116226488,595.549636358493,923.626453162816,376.971974679454,668.665290897936,381.422338320961,545.03883773512,604.450363641507,0,0,0,4,0,0,vertical,horizontal,vertical,horizontal,horizontal,vertical
1c,17,100158,2,48,112,21,M,NA,variable,homogeneous,6,present,0.564095020294189,1,horizontal,horizontal,1,1.05881392478943,green,3,4,1039.62161830041,512.784863451954,844.280285305067,348.874022981887,755.719714694933,851.125977018113,995.341332995339,763.910840470068,1039.62161830041,512.784863451954,844.280285305067,348.874022981887,604.658667004661,436.089159529932,560.378381699593,687.215136548046,0,0,4,0,0,0,vertical,horizontal,horizontal,horizontal,vertical,vertical
1c,17,100158,2,49,113,21,M,NA,variable,homogeneous,6,absent,0.899034976959229,1,horizontal,horizontal,1,0.976462707519531,green,6,NaN,646.537169096228,803.65205506206,NaN,NaN,899.636437764765,834.728737630372,1053.09926866854,631.076682568313,953.462830903772,396.34794493794,700.363562235235,365.271262369628,546.900731331463,568.923317431687,646.537169096228,803.65205506206,0,0,0,0,0,4,horizontal,horizontal,vertical,horizontal,vertical,horizontal
1c,17,100158,2,50,114,21,M,NA,variable,homogeneous,3,present,0.561657905578613,1,horizontal,horizontal,1,0.623528919219971,green,3,1,704.475318678942,363.568117085469,643.006323791957,800.942742169714,643.006323791957,800.942742169714,1052.5183575291,635.489140744817,704.475318678942,363.568117085469,0,0,0,0,0,0,0,0,4,NaN,NaN,NaN,vertical,vertical,horizontal,none,none,none
1c,17,100158,2,51,115,21,M,NA,variable,homogeneous,5,present,0.689125061035156,1,vertical,vertical,1,1.01175608634949,green,2,1,956.993676208043,800.942742169714,657.405809614959,811.404581001536,657.405809614959,811.404581001536,956.993676208043,800.942742169714,1039.62161830041,512.784863451954,791.100628340862,345.155339110131,554.878267535729,529.712474266665,0,0,0,4,0,0,0,NaN,vertical,vertical,vertical,horizontal,vertical,none
1c,17,100158,2,52,116,21,M,NA,variable,homogeneous,3,present,0.782360076904297,1,vertical,vertical,1,0.764702434539795,green,3,1,725.445215295702,356.142287229426,626.090418184063,786.495193912888,626.090418184063,786.495193912888,1048.46436652023,657.362518857686,725.445215295702,356.142287229426,0,0,0,0,0,0,0,0,4,NaN,NaN,NaN,horizontal,horizontal,vertical,none,none,none
1c,17,100158,2,53,117,21,M,NA,variable,homogeneous,4,absent,0.691643953323364,1,horizontal,horizontal,1,1.07057838439941,green,3,NaN,721.200666434388,357.480588344736,NaN,NaN,878.799333565612,842.519411655264,1042.51941165526,521.200666434388,721.200666434388,357.480588344736,557.480588344736,678.799333565612,0,0,0,0,0,0,4,0,NaN,NaN,vertical,vertical,horizontal,horizontal,none,none
1c,17,100158,2,54,118,21,M,NA,variable,homogeneous,3,present,0.672716856002808,1,horizontal,horizontal,1,0.964698247909546,red,1,3,1018.57766167904,731.334709102064,576.971974679454,723.626453162816,1018.57766167904,731.334709102064,804.450363641507,345.03883773512,576.971974679454,723.626453162816,0,0,0,0,0,0,4,0,0,NaN,NaN,NaN,horizontal,vertical,horizontal,none,none,none
1c,17,100158,2,55,119,21,M,NA,variable,homogeneous,4,absent,0.754050016403198,1,vertical,vertical,1,0.988227167129517,green,1,NaN,782.212099195248,854.378832816255,NaN,NaN,782.212099195248,854.378832816255,1054.37883281626,617.787900804752,817.787900804752,345.621167183745,545.621167183745,582.212099195248,0,0,0,0,4,0,0,0,NaN,NaN,vertical,horizontal,vertical,vertical,none,none
1c,17,100158,2,56,120,21,M,NA,variable,homogeneous,3,present,0.567224979400635,1,horizontal,horizontal,1,0.870582571029663,red,2,1,817.787900804752,345.621167183745,1011.40458100154,742.594190385041,1011.40458100154,742.594190385041,817.787900804752,345.621167183745,570.807518193712,711.784642431215,0,0,0,0,0,0,0,4,0,NaN,NaN,NaN,vertical,horizontal,vertical,none,none,none
1c,17,100158,2,57,121,21,M,NA,variable,homogeneous,6,absent,0.596034049987793,1,vertical,vertical,1,0.682351217269897,green,1,NaN,795.549636358493,854.96116226488,NaN,NaN,795.549636358493,854.96116226488,1018.57766167904,731.334709102064,1023.02802532055,476.373546837184,804.450363641507,345.03883773512,581.422338320961,468.665290897936,576.971974679454,723.626453162816,4,0,0,0,0,0,vertical,horizontal,vertical,vertical,horizontal,vertical
1c,17,100158,2,58,122,21,M,NA,variable,homogeneous,4,present,0.730078935623169,1,vertical,vertical,1,0.882347030639648,red,2,4,1048.46436652023,657.362518857686,551.535633479765,542.637481142314,742.637481142314,848.464366520235,1048.46436652023,657.362518857686,857.362518857686,351.535633479765,551.535633479765,542.637481142314,0,0,0,0,0,4,0,0,NaN,NaN,horizontal,vertical,vertical,vertical,none,none
1c,17,100158,2,59,123,21,M,NA,variable,homogeneous,4,absent,0.568256855010986,1,horizontal,horizontal,1,0.988227167129517,green,3,NaN,742.637481142314,351.535633479765,NaN,NaN,857.362518857686,848.464366520235,1048.46436652023,542.637481142314,742.637481142314,351.535633479765,551.535633479765,657.362518857686,0,0,0,0,0,0,4,0,NaN,NaN,vertical,vertical,horizontal,vertical,none,none
1c,17,100158,2,60,124,21,M,NA,variable,homogeneous,6,present,0.599097967147827,1,horizontal,horizontal,1,0.952933788299561,red,1,2,704.475318678942,836.431882914531,956.993676208043,800.942742169714,704.475318678942,836.431882914531,956.993676208043,800.942742169714,1052.5183575291,564.510859255183,895.524681321058,363.568117085469,643.006323791957,399.057257830286,547.481642470899,635.489140744817,4,0,0,0,0,0,horizontal,vertical,vertical,horizontal,horizontal,horizontal
1c,17,100158,2,61,125,21,M,NA,variable,homogeneous,3,absent,0.48151707649231,1,horizontal,horizontal,1,0.905875949859619,green,3,NaN,639.523300282292,401.827779828472,NaN,NaN,708.616172865948,838.063008756786,1051.86052685176,560.109211414741,639.523300282292,401.827779828472,0,0,0,0,0,0,0,0,4,NaN,NaN,NaN,vertical,horizontal,horizontal,none,none,none
1c,17,100158,2,62,126,21,M,NA,variable,homogeneous,5,present,0.579813003540039,1,vertical,vertical,1,1.02352054595947,green,4,3,619.68777079743,419.68777079743,915.767577433584,372.793336331966,839.890788585259,851.86052685176,1051.86052685176,639.890788585259,915.767577433584,372.793336331966,619.68777079743,419.68777079743,572.793336331966,715.767577433584,0,0,0,0,0,4,0,NaN,vertical,horizontal,vertical,vertical,vertical,none
1c,17,100158,2,63,127,21,M,NA,variable,homogeneous,3,present,0.463980913162231,1,horizontal,horizontal,1,0.823524732589722,green,3,2,570.807518193712,711.784642431215,817.787900804752,345.621167183745,1011.40458100154,742.594190385041,817.787900804752,345.621167183745,570.807518193712,711.784642431215,0,0,0,0,0,0,0,0,4,NaN,NaN,NaN,horizontal,horizontal,horizontal,none,none,none
1c,17,100158,2,64,128,21,M,NA,variable,homogeneous,4,absent,0.559698104858398,1,horizontal,horizontal,1,0.705880136489868,red,4,NaN,545.349468637584,586.654331158049,NaN,NaN,786.654331158049,854.650531362416,1054.65053136242,613.345668841951,813.345668841951,345.349468637584,545.349468637584,586.654331158049,0,0,0,0,0,0,0,4,NaN,NaN,vertical,horizontal,vertical,horizontal,none,none
1c,17,100158,3,1,129,21,M,NA,variable,homogeneous,6,absent,1.06821084022522,1,vertical,vertical,1,0.941169328689575,green,6,NaN,565.271262369628,699.636437764765,NaN,NaN,768.923317431687,853.099268668537,1003.65205506206,753.462830903772,1034.72873763037,500.363562235235,831.076682568313,346.900731331463,596.34794493794,446.537169096228,565.271262369628,699.636437764765,0,0,0,0,0,4,horizontal,vertical,horizontal,horizontal,horizontal,vertical
1c,17,100158,3,2,130,21,M,NA,variable,homogeneous,4,present,0.567312955856323,1,vertical,vertical,1,1.09410730361938,green,2,1,1052.5183575291,564.510859255183,835.489140744817,852.518357529101,835.489140744817,852.518357529101,1052.5183575291,564.510859255183,764.510859255183,347.4816424709,547.481642470899,635.489140744817,0,0,0,0,0,4,0,0,NaN,NaN,vertical,vertical,vertical,vertical,none,none
1c,17,100158,3,3,131,21,M,NA,variable,homogeneous,3,absent,0.659212827682495,1,horizontal,horizontal,1,0.611764459609985,green,1,NaN,946.261991269517,808.883771293693,NaN,NaN,946.261991269517,808.883771293693,907.767656743878,368.891514305654,545.970351986605,622.224714400653,0,0,0,0,0,0,4,0,0,NaN,NaN,NaN,horizontal,horizontal,horizontal,none,none,none
1c,17,100158,3,4,132,21,M,NA,variable,homogeneous,3,absent,0.494500160217285,1,horizontal,horizontal,1,0.894111490249634,green,2,NaN,1034.72873763037,500.363562235235,NaN,NaN,768.923317431687,853.099268668537,1034.72873763037,500.363562235235,596.34794493794,446.537169096228,0,0,0,0,0,0,0,4,0,NaN,NaN,NaN,horizontal,horizontal,horizontal,none,none,none
1c,17,100158,3,5,133,21,M,NA,variable,homogeneous,4,present,0.846935987472534,1,horizontal,horizontal,1,0.717644596099854,green,2,3,1000.94274216971,756.993676208043,956.993676208043,399.057257830286,643.006323791957,800.942742169714,1000.94274216971,756.993676208043,956.993676208043,399.057257830286,599.057257830286,443.006323791957,0,0,0,0,0,4,0,0,NaN,NaN,vertical,horizontal,horizontal,vertical,none,none
1c,17,100158,3,6,134,21,M,NA,variable,homogeneous,5,absent,0.534035921096802,1,vertical,vertical,1,0.894111490249634,red,4,NaN,791.100628340862,345.155339110131,NaN,NaN,657.405809614959,811.404581001536,956.993676208043,800.942742169714,1039.62161830041,512.784863451954,791.100628340862,345.155339110131,554.878267535729,529.712474266665,0,0,0,0,0,4,0,NaN,vertical,vertical,horizontal,vertical,vertical,none
1c,17,100158,3,7,135,21,M,NA,variable,homogeneous,5,present,0.761863946914673,1,vertical,vertical,1,1.04704946517944,red,1,5,835.489140744817,852.518357529101,570.807518193712,711.784642431215,835.489140744817,852.518357529101,1051.12597701811,644.280285305067,919.715248510402,374.848363820974,622.862115532956,416.568350913644,570.807518193712,711.784642431215,0,0,4,0,0,0,0,NaN,vertical,horizontal,horizontal,horizontal,horizontal,none
1c,17,100158,3,8,136,21,M,NA,variable,homogeneous,6,absent,0.742235898971558,1,horizontal,horizontal,1,1.04704946517944,red,3,NaN,1049.42763818712,546.982518841471,NaN,NaN,721.200666434388,842.519411655264,970.628304621509,789.501930496736,1049.42763818712,546.982518841471,878.799333565612,357.480588344736,629.371695378491,410.498069503264,550.57236181288,653.017481158529,0,0,4,0,0,0,horizontal,horizontal,horizontal,vertical,vertical,vertical
1c,17,100158,3,9,137,21,M,NA,variable,homogeneous,3,present,0.677263021469116,1,horizontal,horizontal,1,0.999991626739502,red,2,3,891.383827134052,361.936991243214,548.13947314824,639.890788585259,960.476699717708,798.172220171528,891.383827134052,361.936991243214,548.13947314824,639.890788585259,0,0,0,0,0,0,0,4,0,NaN,NaN,NaN,vertical,horizontal,horizontal,none,none,none
1c,17,100158,3,10,138,21,M,NA,variable,homogeneous,5,absent,0.636183023452759,1,horizontal,horizontal,1,0.670586757659912,red,1,NaN,887.215136548046,839.621618300407,NaN,NaN,887.215136548046,839.621618300407,1054.84466088987,591.100628340862,870.287525733335,354.878267535729,588.595418998464,457.40580961496,599.057257830286,756.993676208043,0,0,4,0,0,0,0,NaN,horizontal,horizontal,horizontal,vertical,vertical,none
1c,17,100158,3,11,139,21,M,NA,variable,homogeneous,5,absent,0.649740934371948,1,vertical,vertical,1,0.811760272979736,green,4,NaN,576.971974679454,476.373546837184,NaN,NaN,907.767656743878,831.108485694346,1053.09926866854,568.923317431687,848.656293821019,349.685068220846,576.971974679454,476.373546837184,613.504806087112,773.909581815937,0,0,0,0,0,4,0,NaN,vertical,horizontal,horizontal,vertical,horizontal,none
1c,17,100158,3,12,140,21,M,NA,variable,homogeneous,4,present,0.49990701675415,1,horizontal,horizontal,1,1.05881392478943,green,3,4,853.017481158529,350.57236181288,550.57236181288,546.982518841471,746.982518841471,849.42763818712,1049.42763818712,653.017481158529,853.017481158529,350.57236181288,550.57236181288,546.982518841471,0,0,0,0,0,0,4,0,NaN,NaN,horizontal,horizontal,horizontal,horizontal,none,none
1c,17,100158,3,13,141,21,M,NA,variable,homogeneous,6,present,0.431430101394653,1,horizontal,horizontal,1,1.0823428440094,green,4,1,878.799333565612,357.480588344736,721.200666434388,842.519411655264,721.200666434388,842.519411655264,970.628304621509,789.501930496736,1049.42763818712,546.982518841471,878.799333565612,357.480588344736,629.371695378491,410.498069503264,550.57236181288,653.017481158529,0,0,0,4,0,0,horizontal,horizontal,horizontal,horizontal,horizontal,horizontal
1c,17,100158,3,14,142,21,M,NA,variable,homogeneous,6,present,0.596049070358276,1,vertical,vertical,1,0.77646689414978,red,1,2,891.383827134052,838.063008756786,1051.86052685176,639.890788585259,891.383827134052,838.063008756786,1051.86052685176,639.890788585259,960.476699717708,401.827779828472,708.616172865948,361.936991243214,548.13947314824,560.109211414741,639.523300282292,798.172220171528,4,0,0,0,0,0,vertical,vertical,vertical,horizontal,horizontal,horizontal
1c,17,100158,3,15,143,21,M,NA,variable,homogeneous,3,present,0.609334945678711,1,vertical,vertical,1,0.658822298049927,red,1,3,891.383827134052,838.063008756786,548.13947314824,560.109211414741,891.383827134052,838.063008756786,960.476699717708,401.827779828472,548.13947314824,560.109211414741,0,0,0,0,0,0,4,0,0,NaN,NaN,NaN,vertical,vertical,horizontal,none,none,none
1c,17,100158,3,16,144,21,M,NA,variable,homogeneous,4,present,0.536399126052856,1,horizontal,horizontal,1,0.741173515319824,red,2,1,1054.37883281626,617.787900804752,782.212099195248,854.378832816255,782.212099195248,854.378832816255,1054.37883281626,617.787900804752,817.787900804752,345.621167183745,545.621167183745,582.212099195248,0,0,0,0,0,4,0,0,NaN,NaN,vertical,horizontal,vertical,horizontal,none,none
1c,17,100158,3,17,145,21,M,NA,variable,homogeneous,6,absent,0.68595814704895,1,vertical,vertical,1,0.741173515319824,red,1,NaN,923.626453162816,823.028025320546,NaN,NaN,923.626453162816,823.028025320546,1054.96116226488,604.450363641507,931.334709102064,381.422338320961,676.373546837184,376.971974679454,545.03883773512,595.549636358493,668.665290897936,818.577661679039,4,0,0,0,0,0,vertical,horizontal,vertical,vertical,vertical,vertical
1c,17,100158,3,18,146,21,M,NA,variable,homogeneous,5,present,0.53653883934021,1,horizontal,horizontal,1,1.04704946517944,green,4,2,613.504806087112,426.090418184063,1053.09926866854,631.076682568313,848.656293821019,850.314931779154,1053.09926866854,631.076682568313,907.767656743878,368.891514305654,613.504806087112,426.090418184063,576.971974679454,723.626453162816,0,0,0,0,0,4,0,NaN,horizontal,vertical,horizontal,horizontal,vertical,none
1c,17,100158,3,19,147,21,M,NA,variable,homogeneous,3,present,0.622658967971802,1,horizontal,horizontal,1,0.741173515319824,green,2,3,1018.57766167904,468.665290897936,576.971974679454,476.373546837184,804.450363641507,854.96116226488,1018.57766167904,468.665290897936,576.971974679454,476.373546837184,0,0,0,0,0,0,0,4,0,NaN,NaN,NaN,vertical,horizontal,horizontal,none,none,none
1c,17,100158,3,20,148,21,M,NA,variable,homogeneous,6,absent,1.2763991355896,0,vertical,horizontal,1,0.670586757659912,red,5,NaN,545,600,NaN,NaN,927.5,820.836477965032,1055,600,927.5,379.163522034968,672.5,379.163522034968,545,600,672.5,820.836477965032,0,0,0,0,4,0,horizontal,horizontal,horizontal,horizontal,vertical,vertical
1c,17,100158,3,21,149,21,M,NA,variable,homogeneous,5,absent,0.796456098556519,1,vertical,vertical,1,0.717644596099854,red,1,NaN,657.405809614959,811.404581001536,NaN,NaN,657.405809614959,811.404581001536,956.993676208043,800.942742169714,1039.62161830041,512.784863451954,791.100628340862,345.155339110131,554.878267535729,529.712474266665,0,0,4,0,0,0,0,NaN,vertical,horizontal,vertical,vertical,vertical,none
1c,17,100158,3,22,150,21,M,NA,variable,homogeneous,3,present,0.644810914993286,1,vertical,vertical,1,0.999991626739502,green,1,2,992.450942956807,767.295052392579,848.656293821019,349.685068220846,992.450942956807,767.295052392579,848.656293821019,349.685068220846,558.892763222174,683.019879386575,0,0,0,0,0,0,4,0,0,NaN,NaN,NaN,vertical,horizontal,horizontal,none,none,none
1c,17,100158,3,23,151,21,M,NA,variable,homogeneous,4,absent,0.703675031661987,1,horizontal,horizontal,1,0.694115676879883,red,3,NaN,653.738008730483,391.116228706307,NaN,NaN,946.261991269517,808.883771293693,1008.88377129369,453.738008730483,653.738008730483,391.116228706307,591.116228706307,746.261991269517,0,0,0,0,0,0,4,0,NaN,NaN,horizontal,vertical,horizontal,horizontal,none,none
1c,17,100158,3,24,152,21,M,NA,variable,homogeneous,3,present,0.583972930908203,1,vertical,vertical,1,0.917640409469604,green,1,2,949.885239334581,806.299333565612,903.717843984329,367.045908301137,949.885239334581,806.299333565612,903.717843984329,367.045908301137,546.39691668109,626.654758133252,0,0,0,0,0,0,4,0,0,NaN,NaN,NaN,vertical,vertical,horizontal,none,none,none
1c,17,100158,3,25,153,21,M,NA,variable,homogeneous,3,absent,0.494592905044556,1,vertical,vertical,1,0.741173515319824,red,3,NaN,738.309916622085,352.574589799621,NaN,NaN,616.568350913644,777.137884467044,1045.12173246427,670.287525733335,738.309916622085,352.574589799621,0,0,0,0,0,0,0,0,4,NaN,NaN,NaN,horizontal,vertical,vertical,none,none,none
1c,17,100158,3,26,154,21,M,NA,variable,homogeneous,6,present,0.557684183120728,1,horizontal,horizontal,1,1.04704946517944,red,4,6,738.309916622085,352.574589799621,616.568350913644,777.137884467044,861.690083377915,847.425410200379,1045.12173246427,670.287525733335,983.431649086356,422.862115532956,738.309916622085,352.574589799621,554.878267535729,529.712474266665,616.568350913644,777.137884467044,0,0,0,4,0,0,horizontal,vertical,horizontal,horizontal,vertical,horizontal
1c,17,100158,3,27,155,21,M,NA,variable,homogeneous,5,present,0.610913991928101,1,vertical,vertical,1,0.694115676879883,green,5,2,646.537169096228,803.65205506206,1043.85771277057,525.445215295702,946.261991269517,808.883771293693,1043.85771277057,525.445215295702,804.450363641507,345.03883773512,558.892763222174,516.980120613425,646.537169096228,803.65205506206,0,0,0,0,0,0,4,NaN,horizontal,vertical,vertical,horizontal,vertical,none
1c,17,100158,3,28,156,21,M,NA,variable,homogeneous,4,absent,0.685171127319336,0,vertical,horizontal,1,0.694115676879883,green,2,NaN,1054.37883281626,617.787900804752,NaN,NaN,782.212099195248,854.378832816255,1054.37883281626,617.787900804752,817.787900804752,345.621167183745,545.621167183745,582.212099195248,0,0,0,0,0,4,0,0,NaN,NaN,horizontal,vertical,vertical,vertical,none,none
1c,17,100158,3,29,157,21,M,NA,variable,homogeneous,4,absent,0.536277055740356,1,horizontal,horizontal,1,1.04704946517944,green,3,NaN,716.980120613425,358.892763222174,NaN,NaN,883.019879386575,841.107236777826,1041.10723677783,516.980120613425,716.980120613425,358.892763222174,558.892763222174,683.019879386575,0,0,0,0,0,0,4,0,NaN,NaN,horizontal,horizontal,horizontal,vertical,none,none
1c,17,100158,3,30,158,21,M,NA,variable,homogeneous,5,absent,0.513476848602295,1,horizontal,horizontal,1,0.729409055709839,green,4,NaN,708.616172865948,361.936991243214,NaN,NaN,734.001143498857,846.311085703712,1013.86099482608,738.882953928832,998.172220171528,439.523300282291,708.616172865948,361.936991243214,545.349468637584,613.345668841951,0,0,0,0,0,4,0,NaN,horizontal,horizontal,vertical,horizontal,horizontal,none
1c,17,100158,3,31,159,21,M,NA,variable,homogeneous,5,present,0.840157032012939,1,horizontal,horizontal,1,0.611764459609985,green,2,3,1053.60308331891,626.654758133252,903.717843984329,367.045908301137,853.017481158529,849.42763818712,1053.60308331891,626.654758133252,903.717843984329,367.045908301137,610.498069503264,429.371695378491,579.163522034968,727.5,0,0,0,4,0,0,0,NaN,vertical,horizontal,vertical,vertical,vertical,none
1c,17,100158,3,32,160,21,M,NA,variable,homogeneous,4,absent,0.633959054946899,1,vertical,vertical,1,0.847053651809692,red,2,NaN,1032.95409169886,496.282156015671,NaN,NaN,903.717843984329,832.954091698863,1032.95409169886,496.282156015671,696.282156015671,367.045908301137,567.045908301137,703.717843984329,0,0,0,0,0,4,0,0,NaN,NaN,vertical,vertical,vertical,horizontal,none,none
1c,17,100158,3,33,161,21,M,NA,variable,homogeneous,6,present,0.926342010498047,1,vertical,vertical,1,0.764702434539795,green,1,5,927.5,820.836477965032,545,600,927.5,820.836477965032,1055,600,927.5,379.163522034968,672.5,379.163522034968,545,600,672.5,820.836477965032,4,0,0,0,0,0,vertical,horizontal,vertical,vertical,horizontal,vertical
1c,17,100158,3,34,162,21,M,NA,variable,homogeneous,5,absent,0.841235160827637,1,horizontal,horizontal,1,0.611764459609985,red,5,NaN,553.688914296288,534.001143498857,NaN,NaN,661.117046071168,813.860994826083,960.476699717708,798.172220171528,1038.06300875679,508.616172865948,786.654331158049,345.349468637584,553.688914296288,534.001143498857,0,0,0,0,0,0,4,NaN,horizontal,horizontal,vertical,vertical,horizontal,none
1c,17,100158,3,35,163,21,M,NA,variable,homogeneous,3,absent,0.638430118560791,1,vertical,vertical,1,0.811760272979736,green,2,NaN,1025.15163617903,719.715248510402,NaN,NaN,583.747735480111,735.129412379467,1025.15163617903,719.715248510402,791.100628340862,345.155339110131,0,0,0,0,0,0,0,4,0,NaN,NaN,NaN,vertical,vertical,vertical,none,none,none
1c,17,100158,3,36,164,21,M,NA,variable,homogeneous,3,present,0.737890958786011,1,horizontal,horizontal,1,0.717644596099854,green,1,2,616.568350913644,777.137884467044,1045.12173246427,670.287525733335,616.568350913644,777.137884467044,1045.12173246427,670.287525733335,738.309916622085,352.574589799621,0,0,0,0,0,0,4,0,0,NaN,NaN,NaN,horizontal,horizontal,horizontal,none,none,none
1c,17,100158,3,37,165,21,M,NA,variable,homogeneous,3,present,0.598447799682617,1,vertical,vertical,1,1.09410730361938,red,3,2,619.68777079743,419.68777079743,1046.31108570371,534.001143498857,734.001143498857,846.311085703712,1046.31108570371,534.001143498857,619.68777079743,419.68777079743,0,0,0,0,0,0,0,0,4,NaN,NaN,NaN,horizontal,vertical,vertical,none,none,none
1c,17,100158,3,38,166,21,M,NA,variable,homogeneous,6,absent,0.774827003479004,1,horizontal,horizontal,1,0.623528919219971,green,5,NaN,545.349468637584,586.654331158049,NaN,NaN,915.767577433584,827.206663668034,1054.65053136242,613.345668841951,938.882953928832,386.139005173917,684.232422566416,372.793336331966,545.349468637584,586.654331158049,661.117046071168,813.860994826083,0,0,0,0,4,0,horizontal,vertical,horizontal,horizontal,horizontal,horizontal
1c,17,100158,3,39,167,21,M,NA,variable,homogeneous,6,present,0.723254919052124,1,vertical,vertical,1,0.835289192199707,green,6,2,547.481642470899,635.489140744817,956.993676208043,800.942742169714,704.475318678942,836.431882914531,956.993676208043,800.942742169714,1052.5183575291,564.510859255183,895.524681321058,363.568117085469,643.006323791957,399.057257830286,547.481642470899,635.489140744817,0,0,0,0,0,4,horizontal,horizontal,vertical,vertical,horizontal,vertical
1c,17,100158,3,40,168,21,M,NA,variable,homogeneous,6,present,0.834788084030151,1,vertical,vertical,1,1.04704946517944,red,1,6,764.510859255183,852.518357529101,563.568117085469,695.524681321058,764.510859255183,852.518357529101,1000.94274216971,756.993676208043,1036.43188291453,504.475318678942,835.489140744817,347.4816424709,599.057257830286,443.006323791957,563.568117085469,695.524681321058,4,0,0,0,0,0,vertical,vertical,horizontal,horizontal,horizontal,horizontal
1c,17,100158,3,41,169,21,M,NA,variable,homogeneous,4,absent,0.636674880981445,1,vertical,vertical,1,1.04704946517944,red,2,NaN,1020.83647796503,727.5,NaN,NaN,672.5,820.836477965032,1020.83647796503,727.5,927.5,379.163522034968,579.163522034968,472.5,0,0,0,0,0,4,0,0,NaN,NaN,horizontal,vertical,horizontal,vertical,none,none
1c,17,100158,3,42,170,21,M,NA,variable,homogeneous,3,absent,0.643183946609497,1,vertical,vertical,1,1.0823428440094,green,2,NaN,1036.43188291453,504.475318678942,NaN,NaN,764.510859255183,852.518357529101,1036.43188291453,504.475318678942,599.057257830286,443.006323791957,0,0,0,0,0,0,0,4,0,NaN,NaN,NaN,vertical,vertical,vertical,none,none,none
1c,17,100158,3,43,171,21,M,NA,variable,homogeneous,6,absent,0.601888179779053,1,horizontal,horizontal,1,0.682351217269897,green,4,NaN,684.232422566416,372.793336331966,NaN,NaN,915.767577433584,827.206663668034,1054.65053136242,613.345668841951,938.882953928832,386.139005173917,684.232422566416,372.793336331966,545.349468637584,586.654331158049,661.117046071168,813.860994826083,0,0,0,4,0,0,horizontal,horizontal,horizontal,horizontal,vertical,horizontal
1c,17,100158,3,44,172,21,M,NA,variable,homogeneous,3,absent,0.770734071731567,1,horizontal,horizontal,1,0.835289192199707,red,2,NaN,1054.96116226488,604.450363641507,NaN,NaN,668.665290897936,818.577661679039,1054.96116226488,604.450363641507,676.373546837184,376.971974679454,0,0,0,0,0,0,0,4,0,NaN,NaN,NaN,vertical,horizontal,vertical,none,none,none
1c,17,100158,3,45,173,21,M,NA,variable,homogeneous,5,present,0.620284080505371,1,horizontal,horizontal,1,0.694115676879883,red,1,3,804.450363641507,854.96116226488,946.261991269517,391.116228706307,804.450363641507,854.96116226488,1043.85771277057,674.554784704298,946.261991269517,391.116228706307,646.537169096228,396.34794493794,558.892763222174,683.019879386575,0,0,4,0,0,0,0,NaN,horizontal,horizontal,horizontal,horizontal,vertical,none
1c,17,100158,3,46,174,21,M,NA,variable,homogeneous,3,absent,0.541679859161377,1,vertical,vertical,1,0.847053651809692,red,3,NaN,626.090418184063,413.504806087112,NaN,NaN,725.445215295702,843.857712770574,1048.46436652023,542.637481142314,626.090418184063,413.504806087112,0,0,0,0,0,0,0,0,4,NaN,NaN,NaN,horizontal,horizontal,vertical,none,none,none
1c,17,100158,3,47,175,21,M,NA,variable,homogeneous,5,absent,0.525277853012085,1,horizontal,horizontal,1,1.02352054595947,green,1,NaN,680.284751489598,825.151636179026,NaN,NaN,680.284751489598,825.151636179026,977.137884467044,783.431649086356,1029.19248180629,488.215357568785,764.510859255183,347.4816424709,548.874022981887,555.719714694933,0,0,4,0,0,0,0,NaN,horizontal,horizontal,vertical,vertical,horizontal,none
1c,17,100158,3,48,176,21,M,NA,variable,homogeneous,6,present,1.60386204719543,1,horizontal,horizontal,1,0.799995813369751,red,2,3,1054.96116226488,604.450363641507,931.334709102064,381.422338320961,923.626453162816,823.028025320546,1054.96116226488,604.450363641507,931.334709102064,381.422338320961,676.373546837184,376.971974679454,545.03883773512,595.549636358493,668.665290897936,818.577661679039,0,4,0,0,0,0,vertical,horizontal,horizontal,vertical,vertical,horizontal
1c,17,100158,3,49,177,21,M,NA,variable,homogeneous,4,present,0.518450021743774,1,horizontal,horizontal,1,0.92940486907959,red,4,1,619.68777079743,419.68777079743,619.68777079743,780.31222920257,619.68777079743,780.31222920257,980.31222920257,780.31222920257,980.31222920257,419.68777079743,619.68777079743,419.68777079743,0,0,0,0,0,0,0,4,NaN,NaN,horizontal,horizontal,vertical,horizontal,none,none
1c,17,100158,3,50,178,21,M,NA,variable,homogeneous,5,absent,0.71735405921936,1,vertical,vertical,1,0.6,green,3,NaN,878.799333565612,357.480588344736,NaN,NaN,878.799333565612,842.519411655264,1055,600,878.799333565612,357.480588344736,593.700666434388,450.114760665419,593.700666434388,749.885239334581,0,0,0,0,4,0,0,NaN,horizontal,vertical,vertical,vertical,vertical,none
1c,17,100158,3,51,179,21,M,NA,variable,homogeneous,5,present,0.640669822692871,1,vertical,vertical,1,1.03528500556946,red,3,2,826.654758133252,346.39691668109,1049.42763818712,546.982518841471,927.5,820.836477965032,1049.42763818712,546.982518841471,826.654758133252,346.39691668109,567.045908301137,496.282156015671,629.371695378491,789.501930496736,0,0,0,0,4,0,0,NaN,horizontal,horizontal,vertical,horizontal,vertical,none
1c,17,100158,3,52,180,21,M,NA,variable,homogeneous,3,present,0.662723064422607,1,horizontal,horizontal,1,0.658822298049927,red,1,2,751.343706178981,850.314931779154,1041.10723677783,516.980120613425,751.343706178981,850.314931779154,1041.10723677783,516.980120613425,607.549057043193,432.704947607421,0,0,0,0,0,0,4,0,0,NaN,NaN,NaN,horizontal,horizontal,horizontal,none,none,none
1c,17,100158,3,53,181,21,M,NA,variable,homogeneous,4,present,0.900979995727539,1,vertical,vertical,1,0.635293378829956,red,2,1,1013.86099482608,738.882953928832,661.117046071168,813.860994826083,661.117046071168,813.860994826083,1013.86099482608,738.882953928832,938.882953928832,386.139005173917,586.139005173917,461.117046071168,0,0,0,0,0,4,0,0,NaN,NaN,horizontal,vertical,horizontal,horizontal,none,none
1c,17,100158,3,54,182,21,M,NA,variable,homogeneous,4,present,0.502333879470825,1,vertical,vertical,1,0.764702434539795,red,2,4,1052.5183575291,635.489140744817,547.481642470899,564.510859255183,764.510859255183,852.518357529101,1052.5183575291,635.489140744817,835.489140744817,347.4816424709,547.481642470899,564.510859255183,0,0,0,0,0,4,0,0,NaN,NaN,horizontal,vertical,vertical,vertical,none,none
1c,17,100158,3,55,183,21,M,NA,variable,homogeneous,5,present,0.553263902664185,1,vertical,vertical,1,0.635293378829956,green,4,3,668.665290897936,381.422338320961,967.295052392579,407.549057043193,777.775285599347,854.029648013395,1034.72873763037,699.636437764765,967.295052392579,407.549057043193,668.665290897936,381.422338320961,551.535633479765,657.362518857686,0,0,0,0,0,4,0,NaN,horizontal,vertical,horizontal,vertical,vertical,none
1c,17,100158,3,56,184,21,M,NA,variable,homogeneous,5,present,0.664353132247925,1,horizontal,horizontal,1,0.788231353759766,red,5,2,643.006323791957,800.942742169714,1045.12173246427,529.712474266665,942.594190385041,811.404581001536,1045.12173246427,529.712474266665,808.899371659138,345.155339110131,560.378381699593,512.784863451954,643.006323791957,800.942742169714,0,0,0,0,0,0,4,NaN,vertical,horizontal,horizontal,horizontal,horizontal,none
1c,17,100158,3,57,185,21,M,NA,variable,homogeneous,4,present,1.34060096740723,1,vertical,vertical,1,0.741173515319824,green,4,3,548.13947314824,639.890788585259,760.109211414741,348.13947314824,839.890788585259,851.86052685176,1051.86052685176,560.109211414741,760.109211414741,348.13947314824,548.13947314824,639.890788585259,0,0,0,0,0,0,0,4,NaN,NaN,horizontal,vertical,vertical,vertical,none,none
1c,17,100158,3,58,186,21,M,NA,variable,homogeneous,3,absent,0.667197942733765,1,horizontal,horizontal,1,0.976462707519531,red,3,NaN,795.549636358493,345.03883773512,NaN,NaN,581.422338320961,731.334709102064,1023.02802532055,723.626453162816,795.549636358493,345.03883773512,0,0,0,0,0,0,0,0,4,NaN,NaN,NaN,vertical,horizontal,horizontal,none,none,none
1c,17,100158,3,59,187,21,M,NA,variable,homogeneous,4,absent,0.67573094367981,1,horizontal,horizontal,1,0.75293797492981,red,1,NaN,751.343706178981,850.314931779154,NaN,NaN,751.343706178981,850.314931779154,1050.31493177915,648.656293821019,848.656293821019,349.685068220846,549.685068220846,551.343706178981,0,0,0,0,4,0,0,0,NaN,NaN,horizontal,horizontal,vertical,vertical,none,none
1c,17,100158,3,60,188,21,M,NA,variable,homogeneous,6,present,0.72480297088623,1,horizontal,horizontal,1,0.764702434539795,green,3,4,1031.10848569435,492.232343256122,822.224714400653,345.970351986605,777.775285599347,854.029648013395,1008.88377129369,746.261991269517,1031.10848569435,492.232343256122,822.224714400653,345.970351986605,591.116228706307,453.738008730483,568.891514305654,707.767656743878,0,0,4,0,0,0,vertical,vertical,horizontal,horizontal,vertical,vertical
1c,17,100158,3,61,189,21,M,NA,variable,homogeneous,6,absent,0.564428091049194,1,horizontal,horizontal,1,1.04704946517944,red,2,NaN,1053.09926866854,631.076682568313,NaN,NaN,899.636437764765,834.728737630372,1053.09926866854,631.076682568313,953.462830903772,396.34794493794,700.363562235235,365.271262369628,546.900731331463,568.923317431687,646.537169096228,803.65205506206,0,4,0,0,0,0,horizontal,horizontal,horizontal,horizontal,vertical,horizontal
1c,17,100158,3,62,190,21,M,NA,variable,homogeneous,6,absent,0.606145143508911,1,vertical,vertical,1,0.717644596099854,green,4,NaN,903.717843984329,367.045908301137,NaN,NaN,696.282156015671,832.954091698863,949.885239334581,806.299333565612,1053.60308331891,573.345241866748,903.717843984329,367.045908301137,650.114760665419,393.700666434388,546.39691668109,626.654758133252,0,0,0,4,0,0,horizontal,horizontal,horizontal,vertical,vertical,horizontal
1c,17,100158,3,63,191,21,M,NA,variable,homogeneous,4,absent,0.687720060348511,1,vertical,vertical,1,1.05881392478943,green,2,NaN,1054.37883281626,617.787900804752,NaN,NaN,782.212099195248,854.378832816255,1054.37883281626,617.787900804752,817.787900804752,345.621167183745,545.621167183745,582.212099195248,0,0,0,0,0,4,0,0,NaN,NaN,horizontal,vertical,horizontal,horizontal,none,none
1c,17,100158,3,64,192,21,M,NA,variable,homogeneous,4,absent,0.592148065567017,0,horizontal,vertical,1,0.729409055709839,green,1,NaN,716.980120613425,841.107236777826,NaN,NaN,716.980120613425,841.107236777826,1041.10723677783,683.019879386575,883.019879386575,358.892763222174,558.892763222174,516.980120613425,0,0,0,0,4,0,0,0,NaN,NaN,horizontal,horizontal,vertical,horizontal,none,none
1c,17,100158,4,1,193,21,M,NA,variable,homogeneous,3,present,1.05620288848877,1,horizontal,horizontal,1,0.635293378829956,red,1,3,746.982518841471,849.42763818712,610.498069503264,429.371695378491,746.982518841471,849.42763818712,1042.51941165526,521.200666434388,610.498069503264,429.371695378491,0,0,0,0,0,0,4,0,0,NaN,NaN,NaN,horizontal,vertical,vertical,none,none,none
1c,17,100158,4,2,194,21,M,NA,variable,homogeneous,6,absent,0.646811962127686,1,vertical,vertical,1,1.07057838439941,green,2,NaN,1025.15163617903,719.715248510402,NaN,NaN,808.899371659138,854.844660889869,1025.15163617903,719.715248510402,1016.25226451989,464.870587620533,791.100628340862,345.155339110131,574.848363820974,480.284751489598,583.747735480111,735.129412379467,0,4,0,0,0,0,vertical,vertical,vertical,horizontal,horizontal,horizontal
1c,17,100158,4,3,195,21,M,NA,variable,homogeneous,5,absent,0.770149946212769,1,horizontal,horizontal,1,0.705880136489868,green,2,NaN,1031.10848569435,707.767656743878,NaN,NaN,768.923317431687,853.099268668537,1031.10848569435,707.767656743878,973.909581815937,413.504806087112,676.373546837184,376.971974679454,549.685068220846,648.656293821019,0,0,0,4,0,0,0,NaN,horizontal,horizontal,vertical,vertical,vertical,none
1c,17,100158,4,4,196,21,M,NA,variable,homogeneous,6,present,0.569693088531494,1,horizontal,horizontal,1,0.799995813369751,red,1,4,791.100628340862,854.844660889869,808.899371659138,345.155339110131,791.100628340862,854.844660889869,1016.25226451989,735.129412379467,1025.15163617903,480.284751489598,808.899371659138,345.155339110131,583.747735480111,464.870587620533,574.848363820974,719.715248510402,4,0,0,0,0,0,horizontal,vertical,horizontal,horizontal,vertical,vertical
1c,17,100158,4,5,197,21,M,NA,variable,homogeneous,6,absent,0.535398960113525,1,horizontal,horizontal,1,0.905875949859619,green,4,NaN,777.775285599347,345.970351986605,NaN,NaN,822.224714400653,854.029648013395,1031.10848569435,707.767656743878,1008.88377129369,453.738008730483,777.775285599347,345.970351986605,568.891514305654,492.232343256122,591.116228706307,746.261991269517,0,0,0,4,0,0,vertical,vertical,vertical,horizontal,horizontal,horizontal
1c,17,100158,4,6,198,21,M,NA,variable,homogeneous,6,present,0.640780925750732,1,horizontal,horizontal,1,0.92940486907959,green,2,5,1047.42541020038,661.690083377915,552.574589799621,538.309916622085,870.287525733335,845.121732464271,1047.42541020038,661.690083377915,977.137884467044,416.568350913644,729.712474266665,354.878267535729,552.574589799621,538.309916622085,622.862115532956,783.431649086356,0,4,0,0,0,0,vertical,horizontal,vertical,horizontal,vertical,vertical
1c,17,100158,4,7,199,21,M,NA,variable,homogeneous,4,present,0.82742714881897,1,horizontal,horizontal,1,1.07057838439941,green,4,3,610.498069503264,770.628304621509,629.371695378491,410.498069503264,970.628304621509,789.501930496736,989.501930496736,429.371695378491,629.371695378491,410.498069503264,610.498069503264,770.628304621509,0,0,0,0,0,0,0,4,NaN,NaN,horizontal,horizontal,vertical,horizontal,none,none
1c,17,100158,4,8,200,21,M,NA,variable,homogeneous,6,present,1.22582292556763,1,vertical,vertical,1,0.694115676879883,red,1,5,883.019879386575,841.107236777826,549.685068220846,551.343706178981,883.019879386575,841.107236777826,1050.31493177915,648.656293821019,967.295052392579,407.549057043193,716.980120613425,358.892763222174,549.685068220846,551.343706178981,632.704947607421,792.450942956807,4,0,0,0,0,0,vertical,vertical,horizontal,vertical,vertical,vertical
1c,17,100158,4,9,201,21,M,NA,variable,homogeneous,6,present,0.840013980865479,1,vertical,vertical,1,0.870582571029663,green,2,6,1045.12173246427,670.287525733335,616.568350913644,777.137884467044,861.690083377915,847.425410200379,1045.12173246427,670.287525733335,983.431649086356,422.862115532956,738.309916622085,352.574589799621,554.878267535729,529.712474266665,616.568350913644,777.137884467044,0,4,0,0,0,0,vertical,vertical,horizontal,horizontal,horizontal,vertical
1c,17,100158,4,10,202,21,M,NA,variable,homogeneous,3,present,1.02208089828491,1,vertical,vertical,1,0.658822298049927,red,1,2,668.665290897936,818.577661679039,1054.96116226488,604.450363641507,668.665290897936,818.577661679039,1054.96116226488,604.450363641507,676.373546837184,376.971974679454,0,0,0,0,0,0,4,0,0,NaN,NaN,NaN,vertical,horizontal,vertical,none,none,none
1c,17,100158,4,11,203,21,M,NA,variable,homogeneous,5,absent,1.0085461139679,1,horizontal,horizontal,1,1.0823428440094,red,1,NaN,786.654331158049,854.650531362416,NaN,NaN,786.654331158049,854.650531362416,1038.06300875679,691.383827134052,960.476699717708,401.827779828472,661.117046071168,386.139005173917,553.688914296288,665.998856501143,0,0,4,0,0,0,0,NaN,horizontal,vertical,horizontal,vertical,horizontal,none
1c,17,100158,4,12,204,21,M,NA,variable,homogeneous,5,present,0.561482191085815,1,horizontal,horizontal,1,0.635293378829956,green,3,2,1018.57766167904,468.665290897936,992.450942956807,767.295052392579,700.363562235235,834.728737630372,992.450942956807,767.295052392579,1018.57766167904,468.665290897936,742.637481142314,351.535633479765,545.970351986605,577.775285599347,0,0,0,0,4,0,0,NaN,vertical,vertical,horizontal,vertical,horizontal,none
1c,17,100158,4,13,205,21,M,NA,variable,homogeneous,5,absent,0.640220880508423,1,vertical,vertical,1,0.988227167129517,green,4,NaN,607.549057043193,432.704947607421,NaN,NaN,857.362518857686,848.464366520235,1054.0296480134,622.224714400653,899.636437764765,365.271262369628,607.549057043193,432.704947607421,581.422338320961,731.334709102064,0,0,0,0,0,4,0,NaN,horizontal,vertical,horizontal,vertical,vertical,none
1c,17,100158,4,14,206,21,M,NA,variable,homogeneous,3,present,0.604582071304321,1,horizontal,horizontal,1,0.941169328689575,red,1,3,878.799333565612,842.519411655264,550.57236181288,546.982518841471,878.799333565612,842.519411655264,970.628304621509,410.498069503264,550.57236181288,546.982518841471,0,0,0,0,0,0,4,0,0,NaN,NaN,NaN,horizontal,vertical,horizontal,none,none,none
1c,17,100158,4,15,207,21,M,NA,variable,homogeneous,3,present,0.826380014419556,1,vertical,vertical,1,1.09410730361938,green,3,1,619.68777079743,419.68777079743,734.001143498857,846.311085703712,734.001143498857,846.311085703712,1046.31108570371,534.001143498857,619.68777079743,419.68777079743,0,0,0,0,0,0,0,0,4,NaN,NaN,NaN,vertical,horizontal,vertical,none,none,none
1c,17,100158,4,16,208,21,M,NA,variable,homogeneous,6,absent,0.608740091323853,1,horizontal,horizontal,1,1.07057838439941,red,4,NaN,704.475318678942,363.568117085469,NaN,NaN,895.524681321058,836.431882914531,1052.5183575291,635.489140744817,956.993676208043,399.057257830286,704.475318678942,363.568117085469,547.481642470899,564.510859255183,643.006323791957,800.942742169714,0,0,0,4,0,0,vertical,horizontal,vertical,horizontal,horizontal,horizontal
1c,17,100158,4,17,209,21,M,NA,variable,homogeneous,4,absent,0.726805925369263,1,vertical,vertical,1,0.694115676879883,green,1,NaN,661.117046071168,813.860994826083,NaN,NaN,661.117046071168,813.860994826083,1013.86099482608,738.882953928832,938.882953928832,386.139005173917,586.139005173917,461.117046071168,0,0,0,0,4,0,0,0,NaN,NaN,vertical,horizontal,horizontal,horizontal,none,none
1c,17,100158,4,18,210,21,M,NA,variable,homogeneous,4,present,0.665670871734619,1,horizontal,horizontal,1,0.611764459609985,green,1,3,760.109211414741,851.86052685176,839.890788585259,348.13947314824,760.109211414741,851.86052685176,1051.86052685176,639.890788585259,839.890788585259,348.13947314824,548.13947314824,560.109211414741,0,0,0,0,4,0,0,0,NaN,NaN,horizontal,vertical,horizontal,vertical,none,none
1c,17,100158,4,19,211,21,M,NA,variable,homogeneous,3,present,0.86850905418396,1,vertical,vertical,1,0.670586757659912,red,3,2,545.155339110131,608.899371659138,919.715248510402,374.848363820974,935.129412379467,816.252264519889,919.715248510402,374.848363820974,545.155339110131,608.899371659138,0,0,0,0,0,0,0,0,4,NaN,NaN,NaN,vertical,horizontal,vertical,none,none,none
1c,17,100158,4,20,212,21,M,NA,variable,homogeneous,3,absent,0.618170022964478,1,horizontal,horizontal,1,0.811760272979736,green,1,NaN,878.799333565612,842.519411655264,NaN,NaN,878.799333565612,842.519411655264,970.628304621509,410.498069503264,550.57236181288,546.982518841471,0,0,0,0,0,0,4,0,0,NaN,NaN,NaN,horizontal,vertical,horizontal,none,none,none
1c,17,100158,4,21,213,21,M,NA,variable,homogeneous,5,absent,0.569831848144531,1,vertical,vertical,1,0.75293797492981,red,4,NaN,800,345,NaN,NaN,650.114760665419,806.299333565612,949.885239334581,806.299333565612,1042.51941165526,521.200666434388,800,345,557.480588344736,521.200666434388,0,0,0,0,0,4,0,NaN,vertical,horizontal,horizontal,vertical,vertical,none
1c,17,100158,4,22,214,21,M,NA,variable,homogeneous,5,present,0.528345108032227,1,horizontal,horizontal,1,0.952933788299561,red,1,4,751.343706178981,850.314931779154,692.232343256122,368.891514305654,751.343706178981,850.314931779154,1023.02802532055,723.626453162816,986.495193912888,426.090418184063,692.232343256122,368.891514305654,546.900731331463,631.076682568313,0,0,4,0,0,0,0,NaN,horizontal,horizontal,horizontal,horizontal,horizontal,none
1c,17,100158,4,23,215,21,M,NA,variable,homogeneous,4,absent,0.776850938796997,1,vertical,vertical,1,0.682351217269897,red,1,NaN,657.405809614959,811.404581001536,NaN,NaN,657.405809614959,811.404581001536,1011.40458100154,742.594190385041,942.594190385041,388.595418998464,588.595418998464,457.40580961496,0,0,0,0,4,0,0,0,NaN,NaN,vertical,horizontal,vertical,vertical,none,none
1c,17,100158,4,24,216,21,M,NA,variable,homogeneous,5,present,0.5830979347229,1,vertical,vertical,1,0.917640409469604,green,4,5,561.936991243214,508.616172865948,639.523300282292,798.172220171528,938.882953928832,813.860994826083,1046.31108570371,534.001143498857,813.345668841951,345.349468637584,561.936991243214,508.616172865948,639.523300282292,798.172220171528,0,0,0,0,0,4,0,NaN,horizontal,vertical,vertical,vertical,vertical,none
1c,17,100158,4,25,217,21,M,NA,variable,homogeneous,3,absent,0.796881914138794,1,vertical,vertical,1,1.09410730361938,green,2,NaN,1020.83647796503,727.5,NaN,NaN,579.163522034968,727.5,1020.83647796503,727.5,800,345,0,0,0,0,0,0,0,4,0,NaN,NaN,NaN,horizontal,vertical,vertical,none,none,none
1c,17,100158,4,26,218,21,M,NA,variable,homogeneous,6,absent,0.48986291885376,1,vertical,vertical,1,1.05881392478943,red,4,NaN,751.343706178981,349.685068220846,NaN,NaN,848.656293821019,850.314931779154,1041.10723677783,683.019879386575,992.450942956807,432.704947607421,751.343706178981,349.685068220846,558.892763222174,516.980120613425,607.549057043193,767.295052392579,0,0,0,4,0,0,vertical,horizontal,horizontal,vertical,vertical,horizontal
1c,17,100158,4,27,219,21,M,NA,variable,homogeneous,4,absent,0.597038984298706,1,horizontal,horizontal,1,1.07057838439941,red,2,NaN,1048.46436652023,542.637481142314,NaN,NaN,857.362518857686,848.464366520235,1048.46436652023,542.637481142314,742.637481142314,351.535633479765,551.535633479765,657.362518857686,0,0,0,0,0,4,0,0,NaN,NaN,horizontal,horizontal,vertical,horizontal,none,none
1c,17,100158,4,28,220,21,M,NA,variable,homogeneous,4,absent,0.702857971191406,1,horizontal,horizontal,1,0.870582571029663,green,2,NaN,1018.57766167904,731.334709102064,NaN,NaN,668.665290897936,818.577661679039,1018.57766167904,731.334709102064,931.334709102064,381.422338320961,581.422338320961,468.665290897936,0,0,0,0,0,4,0,0,NaN,NaN,vertical,horizontal,vertical,vertical,none,none
1c,17,100158,4,29,221,21,M,NA,variable,homogeneous,6,absent,0.547359943389893,1,horizontal,horizontal,1,0.92940486907959,red,5,NaN,629.371695378491,410.498069503264,NaN,NaN,721.200666434388,842.519411655264,970.628304621509,789.501930496736,1049.42763818712,546.982518841471,878.799333565612,357.480588344736,629.371695378491,410.498069503264,550.57236181288,653.017481158529,0,0,0,0,4,0,horizontal,horizontal,vertical,horizontal,horizontal,horizontal
1c,17,100158,4,30,222,21,M,NA,variable,homogeneous,4,present,0.552912950515747,1,horizontal,horizontal,1,0.729409055709839,red,1,3,700.363562235235,834.728737630372,899.636437764765,365.271262369628,700.363562235235,834.728737630372,1034.72873763037,699.636437764765,899.636437764765,365.271262369628,565.271262369628,500.363562235235,0,0,0,0,4,0,0,0,NaN,NaN,horizontal,horizontal,vertical,horizontal,none,none
1c,17,100158,4,31,223,21,M,NA,variable,homogeneous,4,present,0.652908086776733,1,vertical,vertical,1,1.02352054595947,green,1,3,919.715248510402,825.151636179026,680.284751489598,374.848363820974,919.715248510402,825.151636179026,1025.15163617903,480.284751489598,680.284751489598,374.848363820974,574.848363820974,719.715248510402,0,0,0,0,4,0,0,0,NaN,NaN,vertical,vertical,vertical,horizontal,none,none
1c,17,100158,4,32,224,21,M,NA,variable,homogeneous,5,absent,0.661735057830811,1,horizontal,horizontal,1,0.988227167129517,red,2,NaN,1048.46436652023,657.362518857686,NaN,NaN,822.224714400653,854.029648013395,1048.46436652023,657.362518857686,931.334709102064,381.422338320961,632.704947607421,407.549057043193,565.271262369628,699.636437764765,0,0,0,4,0,0,0,NaN,horizontal,horizontal,horizontal,horizontal,horizontal,none
1c,17,100158,4,33,225,21,M,NA,variable,homogeneous,6,absent,0.644913911819458,1,vertical,vertical,1,1.0823428440094,red,2,NaN,1039.62161830041,687.215136548046,NaN,NaN,844.280285305067,851.125977018113,1039.62161830041,687.215136548046,995.341332995339,436.089159529932,755.719714694933,348.874022981887,560.378381699593,512.784863451954,604.658667004661,763.910840470068,0,4,0,0,0,0,vertical,vertical,horizontal,vertical,vertical,horizontal
1c,17,100158,4,34,226,21,M,NA,variable,homogeneous,3,absent,0.822277069091797,1,vertical,vertical,1,0.823524732589722,red,2,NaN,1013.86099482608,461.117046071168,NaN,NaN,813.345668841951,854.650531362416,1013.86099482608,461.117046071168,572.793336331966,484.232422566416,0,0,0,0,0,0,0,4,0,NaN,NaN,NaN,vertical,vertical,horizontal,none,none,none
1c,17,100158,4,35,227,21,M,NA,variable,homogeneous,5,absent,0.612460851669312,1,horizontal,horizontal,1,0.670586757659912,green,5,NaN,557.480588344736,521.200666434388,NaN,NaN,650.114760665419,806.299333565612,949.885239334581,806.299333565612,1042.51941165526,521.200666434388,800,345,557.480588344736,521.200666434388,0,0,0,0,0,0,4,NaN,horizontal,vertical,vertical,horizontal,horizontal,none
1c,17,100158,4,36,228,21,M,NA,variable,homogeneous,5,present,0.804543018341064,1,vertical,vertical,1,0.976462707519531,red,2,3,1006.29933356561,749.885239334581,1006.29933356561,450.114760665419,721.200666434388,842.519411655264,1006.29933356561,749.885239334581,1006.29933356561,450.114760665419,721.200666434388,357.480588344736,545,600,0,0,0,4,0,0,0,NaN,horizontal,vertical,horizontal,vertical,vertical,none
1c,17,100158,4,37,229,21,M,NA,variable,homogeneous,3,absent,0.690652847290039,1,vertical,vertical,1,0.694115676879883,red,2,NaN,986.495193912888,426.090418184063,NaN,NaN,857.362518857686,848.464366520235,986.495193912888,426.090418184063,556.142287229426,525.445215295702,0,0,0,0,0,0,0,4,0,NaN,NaN,NaN,vertical,vertical,vertical,none,none,none
1c,17,100158,4,38,230,21,M,NA,variable,homogeneous,4,absent,0.514613151550293,1,horizontal,horizontal,1,0.705880136489868,red,3,NaN,676.373546837184,376.971974679454,NaN,NaN,923.626453162816,823.028025320546,1023.02802532055,476.373546837184,676.373546837184,376.971974679454,576.971974679454,723.626453162816,0,0,0,0,0,0,4,0,NaN,NaN,horizontal,vertical,horizontal,vertical,none,none
1c,17,100158,4,39,231,21,M,NA,variable,homogeneous,6,present,0.649277210235596,1,vertical,vertical,1,0.611764459609985,green,4,2,915.767577433584,372.793336331966,938.882953928832,813.860994826083,684.232422566416,827.206663668034,938.882953928832,813.860994826083,1054.65053136242,586.654331158049,915.767577433584,372.793336331966,661.117046071168,386.139005173917,545.349468637584,613.345668841951,0,0,0,4,0,0,vertical,vertical,horizontal,vertical,horizontal,horizontal
1c,17,100158,4,40,232,21,M,NA,variable,homogeneous,5,present,0.467966079711914,1,vertical,vertical,1,1.0823428440094,green,4,2,782.212099195248,345.621167183745,963.910840470068,795.341332995339,664.870587620533,816.252264519889,963.910840470068,795.341332995339,1036.43188291453,504.475318678942,782.212099195248,345.621167183745,552.574589799621,538.309916622085,0,0,0,0,0,4,0,NaN,vertical,horizontal,vertical,vertical,vertical,none
1c,17,100158,4,41,233,21,M,NA,variable,homogeneous,3,absent,0.733790159225464,1,horizontal,horizontal,1,1.02352054595947,red,2,NaN,1054.96116226488,595.549636358493,NaN,NaN,676.373546837184,823.028025320546,1054.96116226488,595.549636358493,668.665290897936,381.422338320961,0,0,0,0,0,0,0,4,0,NaN,NaN,NaN,horizontal,horizontal,vertical,none,none,none
1c,17,100158,4,42,234,21,M,NA,variable,homogeneous,4,present,0.670464038848877,1,vertical,vertical,1,0.882347030639648,red,2,3,983.431649086356,777.137884467044,977.137884467044,416.568350913644,622.862115532956,783.431649086356,983.431649086356,777.137884467044,977.137884467044,416.568350913644,616.568350913644,422.862115532956,0,0,0,0,0,4,0,0,NaN,NaN,vertical,vertical,horizontal,horizontal,none,none
1c,17,100158,4,43,235,21,M,NA,variable,homogeneous,4,absent,0.626593112945557,1,horizontal,horizontal,1,0.905875949859619,green,2,NaN,1046.31108570371,534.001143498857,NaN,NaN,865.998856501143,846.311085703712,1046.31108570371,534.001143498857,734.001143498857,353.688914296288,553.688914296288,665.998856501143,0,0,0,0,0,4,0,0,NaN,NaN,horizontal,horizontal,vertical,vertical,none,none
1c,17,100158,4,44,236,21,M,NA,variable,homogeneous,3,absent,0.623551845550537,1,vertical,vertical,1,0.623528919219971,green,3,NaN,755.719714694933,348.874022981887,NaN,NaN,604.658667004661,763.910840470068,1039.62161830041,687.215136548046,755.719714694933,348.874022981887,0,0,0,0,0,0,0,0,4,NaN,NaN,NaN,horizontal,horizontal,vertical,none,none,none
1c,17,100158,4,45,237,21,M,NA,variable,homogeneous,4,absent,0.702711820602417,1,vertical,vertical,1,0.917640409469604,green,1,NaN,786.654331158049,854.650531362416,NaN,NaN,786.654331158049,854.650531362416,1054.65053136242,613.345668841951,813.345668841951,345.349468637584,545.349468637584,586.654331158049,0,0,0,0,4,0,0,0,NaN,NaN,vertical,horizontal,horizontal,vertical,none,none
1c,17,100158,4,46,238,21,M,NA,variable,homogeneous,5,absent,0.556169986724854,1,vertical,vertical,1,0.976462707519531,green,1,NaN,777.775285599347,854.029648013395,NaN,NaN,777.775285599347,854.029648013395,1034.72873763037,699.636437764765,967.295052392579,407.549057043193,668.665290897936,381.422338320961,551.535633479765,657.362518857686,0,0,4,0,0,0,0,NaN,vertical,horizontal,vertical,vertical,vertical,none
1c,17,100158,4,47,239,21,M,NA,variable,homogeneous,6,present,0.669219970703125,1,vertical,vertical,1,0.882347030639648,red,2,3,980.31222920257,780.31222920257,1046.31108570371,534.001143498857,734.001143498857,846.311085703712,980.31222920257,780.31222920257,1046.31108570371,534.001143498857,865.998856501143,353.688914296288,619.68777079743,419.68777079743,553.688914296288,665.998856501143,0,4,0,0,0,0,vertical,vertical,horizontal,vertical,horizontal,vertical
1c,17,100158,4,48,240,21,M,NA,variable,homogeneous,3,present,0.475480079650879,1,horizontal,horizontal,1,1.02352054595947,green,3,2,545.970351986605,577.775285599347,946.261991269517,391.116228706307,907.767656743878,831.108485694346,946.261991269517,391.116228706307,545.970351986605,577.775285599347,0,0,0,0,0,0,0,0,4,NaN,NaN,NaN,vertical,horizontal,horizontal,none,none,none
1c,17,100158,4,49,241,21,M,NA,variable,homogeneous,5,present,1.16061091423035,1,horizontal,horizontal,1,0.976462707519531,red,1,3,688.215357568785,829.192481806288,1025.15163617903,480.284751489598,688.215357568785,829.192481806288,983.431649086356,777.137884467044,1025.15163617903,480.284751489598,755.719714694933,348.874022981887,547.481642470899,564.510859255183,0,0,4,0,0,0,0,NaN,horizontal,vertical,horizontal,vertical,horizontal,none
1c,17,100158,4,50,242,21,M,NA,variable,homogeneous,6,present,0.635906934738159,1,horizontal,horizontal,1,0.799995813369751,green,1,4,839.890788585259,851.86052685176,760.109211414741,348.13947314824,839.890788585259,851.86052685176,1038.06300875679,691.383827134052,998.172220171528,439.523300282291,760.109211414741,348.13947314824,561.936991243214,508.616172865948,601.827779828472,760.476699717708,4,0,0,0,0,0,horizontal,vertical,vertical,horizontal,vertical,vertical
1c,17,100158,4,51,243,21,M,NA,variable,homogeneous,3,present,0.565438985824585,1,horizontal,horizontal,1,0.623528919219971,green,3,2,742.637481142314,351.535633479765,1043.85771277057,674.554784704298,613.504806087112,773.909581815937,1043.85771277057,674.554784704298,742.637481142314,351.535633479765,0,0,0,0,0,0,0,0,4,NaN,NaN,NaN,horizontal,vertical,horizontal,none,none,none
1c,17,100158,4,52,244,21,M,NA,variable,homogeneous,3,absent,0.413386106491089,1,horizontal,horizontal,1,0.623528919219971,green,3,NaN,708.616172865948,361.936991243214,NaN,NaN,639.523300282292,798.172220171528,1051.86052685176,639.890788585259,708.616172865948,361.936991243214,0,0,0,0,0,0,0,0,4,NaN,NaN,NaN,vertical,horizontal,horizontal,none,none,none
1c,17,100158,4,53,245,21,M,NA,variable,homogeneous,5,present,0.642196893692017,1,horizontal,horizontal,1,0.811760272979736,green,1,3,817.787900804752,854.378832816255,935.129412379467,383.747735480111,817.787900804752,854.378832816255,1047.42541020038,661.690083377915,935.129412379467,383.747735480111,636.089159529932,404.658667004661,563.568117085469,695.524681321058,0,0,4,0,0,0,0,NaN,horizontal,horizontal,vertical,vertical,vertical,none
