experiment,subject,uniqueID,block,trial,trial_cumulative,age,gender,color_cond_blocking,color_history,shape_type,set_size,distractor,rt,acc,target_orient,response_key,response_made,iti,target_color,target_item,distractor_item,target_X,target_Y,distractor_X,distractor_Y,item1_X,item1_Y,item2_X,item2_Y,item3_X,item3_Y,item4_X,item4_Y,item5_X,item5_Y,item6_X,item6_Y,item1_shape,item2_shape,item3_shape,item4_shape,item5_shape,item6_shape,item1_line,item2_line,item3_line,item4_line,item5_line,item6_line
1c,18,100157,1,1,1,19,F,NA,variable,homogeneous,4,present,0.790715932846069,1,horizontal,horizontal,1,1.01175265745683,red,2,1,1050.31493177915,648.656293821019,751.343706178981,850.314931779154,751.343706178981,850.314931779154,1050.31493177915,648.656293821019,848.656293821019,349.685068220846,549.685068220846,551.343706178981,0,0,0,0,0,4,0,0,NaN,NaN,horizontal,horizontal,vertical,horizontal,none,none
1c,18,100157,1,2,2,19,F,NA,variable,homogeneous,6,present,0.899689197540283,1,horizontal,horizontal,1,1.05881010402333,green,6,3,650.114760665419,806.299333565612,949.885239334581,393.700666434388,903.717843984329,832.954091698863,1053.60308331891,626.654758133252,949.885239334581,393.700666434388,696.282156015671,367.045908301137,546.39691668109,573.345241866748,650.114760665419,806.299333565612,0,0,0,0,0,4,horizontal,horizontal,vertical,vertical,horizontal,horizontal
1c,18,100157,1,3,3,19,F,NA,variable,homogeneous,6,present,0.632498025894165,1,vertical,vertical,1,0.705879254774614,green,3,5,1051.12597701811,555.719714694933,636.089159529932,404.658667004661,712.784863451954,839.621618300407,963.910840470068,795.341332995339,1051.12597701811,555.719714694933,887.215136548046,360.378381699593,636.089159529932,404.658667004661,548.874022981887,644.280285305067,0,0,4,0,0,0,vertical,horizontal,vertical,vertical,vertical,vertical
1c,18,100157,1,4,4,19,F,NA,variable,homogeneous,3,absent,0.641419887542725,0,vertical,horizontal,1,1.03528138074008,red,2,NaN,1032.95409169886,703.717843984329,NaN,NaN,593.700666434388,749.885239334581,1032.95409169886,703.717843984329,773.345241866748,346.39691668109,0,0,0,0,0,0,0,4,0,NaN,NaN,NaN,vertical,vertical,vertical,none,none,none
1c,18,100157,1,5,5,19,F,NA,variable,homogeneous,3,absent,0.683372974395752,1,horizontal,horizontal,1,0.847051594474099,red,1,NaN,721.200666434388,842.519411655264,NaN,NaN,721.200666434388,842.519411655264,1049.42763818712,546.982518841471,629.371695378491,410.498069503264,0,0,0,0,0,0,4,0,0,NaN,NaN,NaN,horizontal,vertical,vertical,none,none,none
1c,18,100157,1,6,6,19,F,NA,variable,homogeneous,6,present,0.674999952316284,1,vertical,vertical,1,0.88234467939897,red,6,4,599.057257830286,756.993676208043,764.510859255183,347.4816424709,835.489140744817,852.518357529101,1036.43188291453,695.524681321058,1000.94274216971,443.006323791957,764.510859255183,347.4816424709,563.568117085469,504.475318678942,599.057257830286,756.993676208043,0,0,0,0,0,4,horizontal,horizontal,horizontal,vertical,vertical,vertical
1c,18,100157,1,7,7,19,F,NA,variable,homogeneous,5,absent,1.0767879486084,1,horizontal,horizontal,1,0.611764361641624,green,4,NaN,721.200666434388,357.480588344736,NaN,NaN,721.200666434388,842.519411655264,1006.29933356561,749.885239334581,1006.29933356561,450.114760665419,721.200666434388,357.480588344736,545,600,0,0,0,0,0,4,0,NaN,vertical,horizontal,horizontal,horizontal,vertical,none
1c,18,100157,1,8,8,19,F,NA,variable,homogeneous,3,absent,0.647596120834351,1,horizontal,horizontal,1,1.05881010402333,red,1,NaN,604.658667004661,763.910840470068,NaN,NaN,604.658667004661,763.910840470068,1039.62161830041,687.215136548046,755.719714694933,348.874022981887,0,0,0,0,0,0,4,0,0,NaN,NaN,NaN,horizontal,horizontal,vertical,none,none,none
1c,18,100157,1,9,9,19,F,NA,variable,homogeneous,4,absent,0.717817068099976,1,vertical,vertical,1,0.647057446566495,green,2,NaN,1049.42763818712,546.982518841471,NaN,NaN,853.017481158529,849.42763818712,1049.42763818712,546.982518841471,746.982518841471,350.57236181288,550.57236181288,653.017481158529,0,0,0,0,0,4,0,0,NaN,NaN,horizontal,vertical,horizontal,vertical,none,none
1c,18,100157,1,10,10,19,F,NA,variable,homogeneous,5,present,0.658831119537354,1,vertical,vertical,1,0.705879254774614,green,5,1,565.271262369628,699.636437764765,822.224714400653,854.029648013395,822.224714400653,854.029648013395,1048.46436652023,657.362518857686,931.334709102064,381.422338320961,632.704947607421,407.549057043193,565.271262369628,699.636437764765,0,0,0,0,0,0,4,NaN,horizontal,horizontal,vertical,vertical,vertical,none
1c,18,100157,1,11,11,19,F,NA,variable,homogeneous,6,absent,0.572088003158569,1,vertical,vertical,1,0.999988295815208,red,1,NaN,742.637481142314,848.464366520235,NaN,NaN,742.637481142314,848.464366520235,986.495193912888,773.909581815937,1043.85771277057,525.445215295702,857.362518857686,351.535633479765,613.504806087112,426.090418184063,556.142287229426,674.554784704298,4,0,0,0,0,0,vertical,horizontal,vertical,vertical,horizontal,vertical
1c,18,100157,1,12,12,19,F,NA,variable,homogeneous,3,present,0.631097793579102,1,horizontal,horizontal,1,0.964695210890336,green,1,2,588.595418998464,742.594190385041,1029.19248180629,711.784642431215,588.595418998464,742.594190385041,1029.19248180629,711.784642431215,782.212099195248,345.621167183745,0,0,0,0,0,0,4,0,0,NaN,NaN,NaN,horizontal,horizontal,vertical,none,none,none
1c,18,100157,1,13,13,19,F,NA,variable,homogeneous,5,absent,0.697264194488525,1,vertical,vertical,1,0.88234467939897,red,4,NaN,639.523300282292,401.827779828472,NaN,NaN,813.345668841951,854.650531362416,1046.31108570371,665.998856501143,938.882953928832,386.139005173917,639.523300282292,401.827779828472,561.936991243214,691.383827134052,0,0,0,0,0,4,0,NaN,horizontal,vertical,horizontal,vertical,horizontal,none
1c,18,100157,1,14,14,19,F,NA,variable,homogeneous,6,absent,0.472774982452393,1,vertical,vertical,1,0.670586169849743,green,5,NaN,668.665290897936,381.422338320961,NaN,NaN,676.373546837184,823.028025320546,931.334709102064,818.577661679039,1054.96116226488,595.549636358493,923.626453162816,376.971974679454,668.665290897936,381.422338320961,545.03883773512,604.450363641507,0,0,0,0,4,0,vertical,vertical,horizontal,vertical,vertical,horizontal
1c,18,100157,1,15,15,19,F,NA,variable,homogeneous,3,absent,0.581696033477783,1,vertical,vertical,1,0.752936701341109,green,2,NaN,1041.10723677783,516.980120613425,NaN,NaN,751.343706178981,850.314931779154,1041.10723677783,516.980120613425,607.549057043193,432.704947607421,0,0,0,0,0,0,0,4,0,NaN,NaN,NaN,vertical,vertical,vertical,none,none,none
1c,18,100157,1,16,16,19,F,NA,variable,homogeneous,5,present,0.805194854736328,1,horizontal,horizontal,1,0.78822978626598,green,4,1,684.232422566416,372.793336331966,760.109211414741,851.86052685176,760.109211414741,851.86052685176,1027.20666366803,715.767577433584,980.31222920257,419.68777079743,684.232422566416,372.793336331966,548.13947314824,639.890788585259,0,0,0,0,0,4,0,NaN,vertical,horizontal,vertical,horizontal,vertical,none
1c,18,100157,1,17,17,19,F,NA,variable,homogeneous,5,absent,0.685375213623047,1,vertical,vertical,1,0.988223934173584,green,3,NaN,891.383827134052,361.936991243214,NaN,NaN,865.998856501143,846.311085703712,1054.65053136242,613.345668841951,891.383827134052,361.936991243214,601.827779828472,439.523300282291,586.139005173917,738.882953928832,0,0,0,0,4,0,0,NaN,horizontal,vertical,vertical,vertical,vertical,none
1c,18,100157,1,18,18,19,F,NA,variable,homogeneous,5,present,0.57154393196106,1,horizontal,horizontal,1,0.811758509549228,green,1,4,800,855,650.114760665419,393.700666434388,800,855,1042.51941165526,678.799333565612,949.885239334581,393.700666434388,650.114760665419,393.700666434388,557.480588344736,678.799333565612,0,0,4,0,0,0,0,NaN,horizontal,vertical,horizontal,horizontal,vertical,none
1c,18,100157,1,19,19,19,F,NA,variable,homogeneous,4,absent,0.787865161895752,1,vertical,vertical,1,1.0470457423817,red,4,NaN,545.349468637584,586.654331158049,NaN,NaN,786.654331158049,854.650531362416,1054.65053136242,613.345668841951,813.345668841951,345.349468637584,545.349468637584,586.654331158049,0,0,0,0,0,0,0,4,NaN,NaN,horizontal,vertical,vertical,vertical,none,none
1c,18,100157,1,20,20,19,F,NA,variable,homogeneous,4,present,0.577106952667236,1,vertical,vertical,1,0.658821808208119,green,2,4,1016.25226451989,735.129412379467,583.747735480111,464.870587620533,664.870587620533,816.252264519889,1016.25226451989,735.129412379467,935.129412379467,383.747735480111,583.747735480111,464.870587620533,0,0,0,0,0,4,0,0,NaN,NaN,vertical,vertical,vertical,vertical,none,none
1c,18,100157,1,21,21,19,F,NA,variable,homogeneous,3,present,0.493111133575439,1,vertical,vertical,1,0.999988295815208,red,1,3,853.017481158529,849.42763818712,557.480588344736,521.200666434388,853.017481158529,849.42763818712,989.501930496736,429.371695378491,557.480588344736,521.200666434388,0,0,0,0,0,0,4,0,0,NaN,NaN,NaN,vertical,vertical,horizontal,none,none,none
1c,18,100157,1,22,22,19,F,NA,variable,homogeneous,5,present,0.955286979675293,1,horizontal,horizontal,1,0.823522871190851,red,3,1,967.295052392579,407.549057043193,777.775285599347,854.029648013395,777.775285599347,854.029648013395,1034.72873763037,699.636437764765,967.295052392579,407.549057043193,668.665290897936,381.422338320961,551.535633479765,657.362518857686,0,0,0,0,4,0,0,NaN,vertical,horizontal,horizontal,vertical,vertical,none
1c,18,100157,1,23,23,19,F,NA,variable,homogeneous,4,absent,0.503200054168701,1,horizontal,horizontal,1,1.02351701909846,red,2,NaN,1038.06300875679,508.616172865948,NaN,NaN,891.383827134052,838.063008756786,1038.06300875679,508.616172865948,708.616172865948,361.936991243214,561.936991243214,691.383827134052,0,0,0,0,0,4,0,0,NaN,NaN,vertical,horizontal,vertical,vertical,none,none
1c,18,100157,1,24,24,19,F,NA,variable,homogeneous,3,present,0.540277004241943,1,vertical,vertical,1,0.929402125965465,red,1,3,629.371695378491,789.501930496736,721.200666434388,357.480588344736,629.371695378491,789.501930496736,1049.42763818712,653.017481158529,721.200666434388,357.480588344736,0,0,0,0,0,0,4,0,0,NaN,NaN,NaN,vertical,horizontal,horizontal,none,none,none
1c,18,100157,1,25,25,19,F,NA,variable,homogeneous,3,present,0.652352094650269,1,horizontal,horizontal,1,1.0470457423817,green,3,2,567.045908301137,496.282156015671,1006.29933356561,450.114760665419,826.654758133252,853.60308331891,1006.29933356561,450.114760665419,567.045908301137,496.282156015671,0,0,0,0,0,0,0,0,4,NaN,NaN,NaN,vertical,vertical,horizontal,none,none,none
1c,18,100157,1,26,26,19,F,NA,variable,homogeneous,6,present,0.597920894622803,1,vertical,vertical,1,0.835287232832475,green,6,2,629.371695378491,789.501930496736,1049.42763818712,653.017481158529,878.799333565612,842.519411655264,1049.42763818712,653.017481158529,970.628304621509,410.498069503264,721.200666434388,357.480588344736,550.57236181288,546.982518841471,629.371695378491,789.501930496736,0,0,0,0,0,4,horizontal,horizontal,horizontal,horizontal,vertical,vertical
1c,18,100157,1,27,27,19,F,NA,variable,homogeneous,6,present,0.5048668384552,1,horizontal,horizontal,1,0.741172339699485,green,3,6,1054.65053136242,586.654331158049,545.349468637584,613.345668841951,684.232422566416,827.206663668034,938.882953928832,813.860994826083,1054.65053136242,586.654331158049,915.767577433584,372.793336331966,661.117046071168,386.139005173917,545.349468637584,613.345668841951,0,0,4,0,0,0,horizontal,horizontal,horizontal,horizontal,vertical,vertical
1c,18,100157,1,28,28,19,F,NA,variable,homogeneous,5,absent,0.588217973709106,1,horizontal,horizontal,1,0.647057446566495,red,1,NaN,915.767577433584,827.206663668034,NaN,NaN,915.767577433584,827.206663668034,1051.86052685176,560.109211414741,839.890788585259,348.13947314824,572.793336331966,484.232422566416,619.68777079743,780.31222920257,0,0,4,0,0,0,0,NaN,horizontal,horizontal,horizontal,horizontal,vertical,none
1c,18,100157,1,29,29,19,F,NA,variable,homogeneous,5,absent,0.587792158126831,1,vertical,vertical,1,0.776465424624356,red,3,NaN,1003.65205506206,446.537169096228,NaN,NaN,725.445215295702,843.857712770574,1008.88377129369,746.261991269517,1003.65205506206,446.537169096228,716.980120613425,358.892763222174,545.03883773512,604.450363641507,0,0,0,0,4,0,0,NaN,vertical,horizontal,vertical,vertical,horizontal,none
1c,18,100157,1,30,30,19,F,NA,variable,homogeneous,3,absent,0.642210960388184,0,horizontal,vertical,1,0.929402125965465,green,3,NaN,746.982518841471,350.57236181288,NaN,NaN,610.498069503264,770.628304621509,1042.51941165526,678.799333565612,746.982518841471,350.57236181288,0,0,0,0,0,0,0,0,4,NaN,NaN,NaN,vertical,horizontal,horizontal,none,none,none
1c,18,100157,1,31,31,19,F,NA,variable,homogeneous,5,present,0.922292947769165,1,vertical,vertical,1,0.752936701341109,green,3,4,923.626453162816,376.971974679454,626.090418184063,413.504806087112,831.076682568313,853.099268668537,1050.31493177915,648.656293821019,923.626453162816,376.971974679454,626.090418184063,413.504806087112,568.891514305654,707.767656743878,0,0,0,0,4,0,0,NaN,horizontal,vertical,vertical,vertical,vertical,none
1c,18,100157,1,32,32,19,F,NA,variable,homogeneous,6,absent,0.49172306060791,1,horizontal,horizontal,1,0.941166487607089,green,3,NaN,960.476699717708,401.827779828472,NaN,NaN,891.383827134052,838.063008756786,1051.86052685176,639.890788585259,960.476699717708,401.827779828472,708.616172865948,361.936991243214,548.13947314824,560.109211414741,639.523300282292,798.172220171528,0,0,4,0,0,0,horizontal,vertical,horizontal,horizontal,vertical,horizontal
1c,18,100157,1,33,33,19,F,NA,variable,homogeneous,5,absent,0.703155040740967,1,horizontal,horizontal,1,0.670586169849743,green,4,NaN,688.215357568785,370.807518193712,NaN,NaN,755.719714694933,851.125977018113,1025.15163617903,719.715248510402,983.431649086356,422.862115532956,688.215357568785,370.807518193712,547.481642470899,635.489140744817,0,0,0,0,0,4,0,NaN,vertical,horizontal,horizontal,horizontal,horizontal,none
1c,18,100157,1,34,34,19,F,NA,variable,homogeneous,4,absent,0.668838977813721,1,vertical,vertical,1,0.97645957253196,red,4,NaN,552.574589799621,661.690083377915,NaN,NaN,861.690083377915,847.425410200379,1047.42541020038,538.309916622085,738.309916622085,352.574589799621,552.574589799621,661.690083377915,0,0,0,0,0,0,0,4,NaN,NaN,vertical,vertical,horizontal,vertical,none,none
1c,18,100157,1,35,35,19,F,NA,variable,homogeneous,3,absent,0.570472002029419,1,vertical,vertical,1,1.01175265745683,green,3,NaN,704.475318678942,363.568117085469,NaN,NaN,643.006323791957,800.942742169714,1052.5183575291,635.489140744817,704.475318678942,363.568117085469,0,0,0,0,0,0,0,0,4,NaN,NaN,NaN,vertical,vertical,vertical,none,none,none
1c,18,100157,1,36,36,19,F,NA,variable,homogeneous,6,absent,0.708016872406006,1,horizontal,horizontal,1,0.69411489313299,red,3,NaN,946.261991269517,391.116228706307,NaN,NaN,907.767656743878,831.108485694346,1054.0296480134,622.224714400653,946.261991269517,391.116228706307,692.232343256122,368.891514305654,545.970351986605,577.775285599347,653.738008730483,808.883771293693,0,0,4,0,0,0,vertical,vertical,horizontal,horizontal,vertical,horizontal
1c,18,100157,1,37,37,19,F,NA,variable,homogeneous,6,absent,0.767316102981567,1,vertical,vertical,1,0.647057446566495,red,3,NaN,1013.86099482608,461.117046071168,NaN,NaN,813.345668841951,854.650531362416,1027.20666366803,715.767577433584,1013.86099482608,461.117046071168,786.654331158049,345.349468637584,572.793336331966,484.232422566416,586.139005173917,738.882953928832,0,0,4,0,0,0,horizontal,horizontal,vertical,vertical,horizontal,vertical
1c,18,100157,1,38,38,19,F,NA,variable,homogeneous,4,absent,0.655091047286987,1,horizontal,horizontal,1,0.999988295815208,green,2,NaN,1050.31493177915,551.343706178981,NaN,NaN,848.656293821019,850.314931779154,1050.31493177915,551.343706178981,751.343706178981,349.685068220846,549.685068220846,648.656293821019,0,0,0,0,0,4,0,0,NaN,NaN,horizontal,horizontal,vertical,horizontal,none,none
1c,18,100157,1,39,39,19,F,NA,variable,homogeneous,6,present,0.51737904548645,1,horizontal,horizontal,1,0.870580317757346,red,3,2,1013.86099482608,461.117046071168,1027.20666366803,715.767577433584,813.345668841951,854.650531362416,1027.20666366803,715.767577433584,1013.86099482608,461.117046071168,786.654331158049,345.349468637584,572.793336331966,484.232422566416,586.139005173917,738.882953928832,0,0,4,0,0,0,vertical,horizontal,horizontal,vertical,vertical,horizontal
1c,18,100157,1,40,40,19,F,NA,variable,homogeneous,4,present,0.497796058654785,1,horizontal,horizontal,1,0.88234467939897,green,4,2,613.504806087112,773.909581815937,986.495193912888,426.090418184063,973.909581815937,786.495193912888,986.495193912888,426.090418184063,626.090418184063,413.504806087112,613.504806087112,773.909581815937,0,0,0,0,0,0,0,4,NaN,NaN,horizontal,horizontal,horizontal,horizontal,none,none
1c,18,100157,1,41,41,19,F,NA,variable,homogeneous,4,present,0.463078022003174,1,vertical,vertical,1,0.952930849248713,red,3,2,626.090418184063,413.504806087112,986.495193912888,426.090418184063,973.909581815937,786.495193912888,986.495193912888,426.090418184063,626.090418184063,413.504806087112,613.504806087112,773.909581815937,0,0,0,0,0,0,4,0,NaN,NaN,horizontal,horizontal,vertical,vertical,none,none
1c,18,100157,1,42,42,19,F,NA,variable,homogeneous,3,present,0.466110944747925,1,horizontal,horizontal,1,0.870580317757346,red,2,3,989.501930496736,429.371695378491,557.480588344736,521.200666434388,853.017481158529,849.42763818712,989.501930496736,429.371695378491,557.480588344736,521.200666434388,0,0,0,0,0,0,0,4,0,NaN,NaN,NaN,vertical,horizontal,vertical,none,none,none
1c,18,100157,1,43,43,19,F,NA,variable,homogeneous,4,present,0.502115964889526,1,vertical,vertical,1,0.741172339699485,red,4,3,588.595418998464,742.594190385041,657.405809614959,388.595418998464,942.594190385041,811.404581001536,1011.40458100154,457.40580961496,657.405809614959,388.595418998464,588.595418998464,742.594190385041,0,0,0,0,0,0,0,4,NaN,NaN,vertical,vertical,horizontal,vertical,none,none
1c,18,100157,1,44,44,19,F,NA,variable,homogeneous,3,present,0.522797107696533,1,horizontal,horizontal,1,0.929402125965465,red,3,1,553.688914296288,665.998856501143,980.31222920257,780.31222920257,980.31222920257,780.31222920257,865.998856501143,353.688914296288,553.688914296288,665.998856501143,0,0,0,0,0,0,0,0,4,NaN,NaN,NaN,vertical,horizontal,horizontal,none,none,none
1c,18,100157,1,45,45,19,F,NA,variable,homogeneous,5,present,0.595659017562866,1,horizontal,horizontal,1,1.0941031889482,red,4,1,684.232422566416,372.793336331966,760.109211414741,851.86052685176,760.109211414741,851.86052685176,1027.20666366803,715.767577433584,980.31222920257,419.68777079743,684.232422566416,372.793336331966,548.13947314824,639.890788585259,0,0,0,0,0,4,0,NaN,vertical,vertical,vertical,horizontal,horizontal,none
1c,18,100157,1,46,46,19,F,NA,variable,homogeneous,6,absent,0.629510164260864,1,vertical,vertical,1,1.0941031889482,green,6,NaN,557.480588344736,678.799333565612,NaN,NaN,746.982518841471,849.42763818712,989.501930496736,770.628304621509,1042.51941165526,521.200666434388,853.017481158529,350.57236181288,610.498069503264,429.371695378491,557.480588344736,678.799333565612,0,0,0,0,0,4,vertical,horizontal,vertical,horizontal,vertical,vertical
1c,18,100157,1,47,47,19,F,NA,variable,homogeneous,3,present,0.49532413482666,1,vertical,vertical,1,0.858815956115723,green,3,1,545.621167183745,582.212099195248,911.784642431215,829.192481806288,911.784642431215,829.192481806288,942.594190385041,388.595418998464,545.621167183745,582.212099195248,0,0,0,0,0,0,0,0,4,NaN,NaN,NaN,horizontal,vertical,vertical,none,none,none
1c,18,100157,1,48,48,19,F,NA,variable,homogeneous,5,present,0.583170890808105,0,vertical,horizontal,1,0.894109041040594,red,5,2,545.155339110131,591.100628340862,1000.94274216971,756.993676208043,712.784863451954,839.621618300407,1000.94274216971,756.993676208043,1011.40458100154,457.40580961496,729.712474266665,354.878267535729,545.155339110131,591.100628340862,0,0,0,0,0,0,4,NaN,vertical,vertical,horizontal,vertical,vertical,none
1c,18,100157,1,49,49,19,F,NA,variable,homogeneous,4,absent,0.587054014205933,1,vertical,vertical,1,0.799994147907604,green,4,NaN,596.34794493794,446.537169096228,NaN,NaN,646.537169096228,803.65205506206,1003.65205506206,753.462830903772,953.462830903772,396.34794493794,596.34794493794,446.537169096228,0,0,0,0,0,0,0,4,NaN,NaN,vertical,horizontal,horizontal,vertical,none,none
1c,18,100157,1,50,50,19,F,NA,variable,homogeneous,3,absent,0.513213872909546,1,vertical,vertical,1,0.705879254774614,red,3,NaN,545.621167183745,617.787900804752,NaN,NaN,942.594190385041,811.404581001536,911.784642431215,370.807518193712,545.621167183745,617.787900804752,0,0,0,0,0,0,0,0,4,NaN,NaN,NaN,vertical,horizontal,vertical,none,none,none
1c,18,100157,1,51,51,19,F,NA,variable,homogeneous,6,present,0.332690000534058,1,vertical,vertical,1,0.847051594474099,red,1,2,700.363562235235,834.728737630372,953.462830903772,803.65205506206,700.363562235235,834.728737630372,953.462830903772,803.65205506206,1053.09926866854,568.923317431687,899.636437764765,365.271262369628,646.537169096228,396.34794493794,546.900731331463,631.076682568313,4,0,0,0,0,0,vertical,horizontal,vertical,vertical,horizontal,vertical
1c,18,100157,1,52,52,19,F,NA,variable,homogeneous,4,absent,0.737258195877075,0,horizontal,vertical,1,1.0941031889482,red,1,NaN,874.554784704298,843.857712770574,NaN,NaN,874.554784704298,843.857712770574,1043.85771277057,525.445215295702,725.445215295702,356.142287229426,556.142287229426,674.554784704298,0,0,0,0,4,0,0,0,NaN,NaN,horizontal,vertical,vertical,vertical,none,none
1c,18,100157,1,53,53,19,F,NA,variable,homogeneous,5,absent,0.504629135131836,1,vertical,vertical,1,0.611764361641624,green,4,NaN,596.34794493794,446.537169096228,NaN,NaN,874.554784704298,843.857712770574,1054.96116226488,604.450363641507,883.019879386575,358.892763222174,596.34794493794,446.537169096228,591.116228706307,746.261991269517,0,0,0,0,0,4,0,NaN,horizontal,vertical,vertical,vertical,vertical,none
1c,18,100157,1,54,54,19,F,NA,variable,homogeneous,3,absent,0.586278915405273,1,horizontal,horizontal,1,0.776465424624356,green,1,NaN,755.719714694933,851.125977018113,NaN,NaN,755.719714694933,851.125977018113,1039.62161830041,512.784863451954,604.658667004661,436.089159529932,0,0,0,0,0,0,4,0,0,NaN,NaN,NaN,horizontal,vertical,vertical,none,none,none
1c,18,100157,1,55,55,19,F,NA,variable,homogeneous,4,present,0.635266780853271,1,horizontal,horizontal,1,0.658821808208119,green,3,1,622.862115532956,416.568350913644,977.137884467044,783.431649086356,977.137884467044,783.431649086356,983.431649086356,422.862115532956,622.862115532956,416.568350913644,616.568350913644,777.137884467044,0,0,0,0,0,0,4,0,NaN,NaN,vertical,vertical,horizontal,horizontal,none,none
1c,18,100157,1,56,56,19,F,NA,variable,homogeneous,4,present,0.69453501701355,1,horizontal,horizontal,1,0.717643616416238,red,4,3,576.971974679454,723.626453162816,676.373546837184,376.971974679454,923.626453162816,823.028025320546,1023.02802532055,476.373546837184,676.373546837184,376.971974679454,576.971974679454,723.626453162816,0,0,0,0,0,0,0,4,NaN,NaN,horizontal,horizontal,vertical,horizontal,none,none
1c,18,100157,1,57,57,19,F,NA,variable,homogeneous,4,absent,0.540735006332397,1,horizontal,horizontal,1,0.999988295815208,green,4,NaN,554.878267535729,670.287525733335,NaN,NaN,870.287525733335,845.121732464271,1045.12173246427,529.712474266665,729.712474266665,354.878267535729,554.878267535729,670.287525733335,0,0,0,0,0,0,0,4,NaN,NaN,horizontal,vertical,horizontal,horizontal,none,none
1c,18,100157,1,58,58,19,F,NA,variable,homogeneous,5,present,0.844583034515381,1,vertical,vertical,1,1.0470457423817,red,4,5,773.345241866748,346.39691668109,550.57236181288,546.982518841471,672.5,820.836477965032,970.628304621509,789.501930496736,1032.95409169886,496.282156015671,773.345241866748,346.39691668109,550.57236181288,546.982518841471,0,0,0,0,0,4,0,NaN,horizontal,vertical,horizontal,vertical,vertical,none
1c,18,100157,1,59,59,19,F,NA,variable,homogeneous,6,absent,0.657899856567383,1,horizontal,horizontal,1,0.811758509549228,red,1,NaN,835.489140744817,852.518357529101,NaN,NaN,835.489140744817,852.518357529101,1036.43188291453,695.524681321058,1000.94274216971,443.006323791957,764.510859255183,347.4816424709,563.568117085469,504.475318678942,599.057257830286,756.993676208043,4,0,0,0,0,0,horizontal,horizontal,vertical,horizontal,vertical,horizontal
1c,18,100157,1,60,60,19,F,NA,variable,homogeneous,4,present,0.693794965744019,1,vertical,vertical,1,0.717643616416238,green,2,4,1043.85771277057,525.445215295702,556.142287229426,674.554784704298,874.554784704298,843.857712770574,1043.85771277057,525.445215295702,725.445215295702,356.142287229426,556.142287229426,674.554784704298,0,0,0,0,0,4,0,0,NaN,NaN,vertical,vertical,vertical,vertical,none,none
1c,18,100157,1,61,61,19,F,NA,variable,homogeneous,6,present,0.810493946075439,1,horizontal,horizontal,1,0.729407978057861,red,4,3,822.224714400653,345.970351986605,1031.10848569435,492.232343256122,777.775285599347,854.029648013395,1008.88377129369,746.261991269517,1031.10848569435,492.232343256122,822.224714400653,345.970351986605,591.116228706307,453.738008730483,568.891514305654,707.767656743878,0,0,0,4,0,0,vertical,horizontal,vertical,horizontal,horizontal,vertical
1c,18,100157,1,62,62,19,F,NA,variable,homogeneous,3,present,0.6806800365448,1,vertical,vertical,1,0.682350531491366,green,1,2,593.700666434388,749.885239334581,1032.95409169886,703.717843984329,593.700666434388,749.885239334581,1032.95409169886,703.717843984329,773.345241866748,346.39691668109,0,0,0,0,0,0,4,0,0,NaN,NaN,NaN,vertical,vertical,vertical,none,none,none
1c,18,100157,1,63,63,19,F,NA,variable,homogeneous,6,absent,0.729212999343872,1,horizontal,horizontal,1,0.741172339699485,green,4,NaN,708.616172865948,361.936991243214,NaN,NaN,891.383827134052,838.063008756786,1051.86052685176,639.890788585259,960.476699717708,401.827779828472,708.616172865948,361.936991243214,548.13947314824,560.109211414741,639.523300282292,798.172220171528,0,0,0,4,0,0,horizontal,vertical,vertical,horizontal,vertical,horizontal
1c,18,100157,1,64,64,19,F,NA,variable,homogeneous,5,absent,0.700904130935669,1,horizontal,horizontal,1,0.647057446566495,red,2,NaN,1042.51941165526,521.200666434388,NaN,NaN,949.885239334581,806.299333565612,1042.51941165526,521.200666434388,800,345,557.480588344736,521.200666434388,650.114760665419,806.299333565612,0,0,0,4,0,0,0,NaN,vertical,horizontal,vertical,vertical,vertical,none
1c,18,100157,2,1,65,19,F,NA,variable,homogeneous,4,present,0.810137033462524,1,horizontal,horizontal,1,0.97645957253196,green,2,1,1054.37883281626,582.212099195248,817.787900804752,854.378832816255,817.787900804752,854.378832816255,1054.37883281626,582.212099195248,782.212099195248,345.621167183745,545.621167183745,617.787900804752,0,0,0,0,0,4,0,0,NaN,NaN,vertical,horizontal,vertical,horizontal,none,none
1c,18,100157,2,2,66,19,F,NA,variable,homogeneous,5,present,0.782573938369751,1,horizontal,horizontal,1,0.799994147907604,green,1,4,738.309916622085,847.425410200379,704.475318678942,363.568117085469,738.309916622085,847.425410200379,1016.25226451989,735.129412379467,995.341332995339,436.089159529932,704.475318678942,363.568117085469,545.621167183745,617.787900804752,0,0,4,0,0,0,0,NaN,horizontal,horizontal,horizontal,vertical,horizontal,none
1c,18,100157,2,3,67,19,F,NA,variable,homogeneous,4,present,0.608012914657593,1,horizontal,horizontal,1,0.682350531491366,red,3,4,923.626453162816,376.971974679454,576.971974679454,476.373546837184,676.373546837184,823.028025320546,1023.02802532055,723.626453162816,923.626453162816,376.971974679454,576.971974679454,476.373546837184,0,0,0,0,0,0,4,0,NaN,NaN,vertical,horizontal,horizontal,vertical,none,none
1c,18,100157,2,4,68,19,F,NA,variable,homogeneous,3,absent,0.622310876846313,1,horizontal,horizontal,1,0.894109041040594,red,2,NaN,1054.0296480134,622.224714400653,NaN,NaN,653.738008730483,808.883771293693,1054.0296480134,622.224714400653,692.232343256122,368.891514305654,0,0,0,0,0,0,0,4,0,NaN,NaN,NaN,vertical,horizontal,horizontal,none,none,none
1c,18,100157,2,5,69,19,F,NA,variable,homogeneous,6,present,0.648453950881958,1,vertical,vertical,1,1.08233882730657,red,1,6,923.626453162816,823.028025320546,668.665290897936,818.577661679039,923.626453162816,823.028025320546,1054.96116226488,604.450363641507,931.334709102064,381.422338320961,676.373546837184,376.971974679454,545.03883773512,595.549636358493,668.665290897936,818.577661679039,4,0,0,0,0,0,vertical,vertical,horizontal,vertical,horizontal,vertical
1c,18,100157,2,6,70,19,F,NA,variable,homogeneous,6,present,1.00234317779541,1,vertical,vertical,1,0.635293084924871,green,3,2,1020.83647796503,472.5,1020.83647796503,727.5,800,855,1020.83647796503,727.5,1020.83647796503,472.5,800,345,579.163522034968,472.5,579.163522034968,727.5,0,0,4,0,0,0,vertical,vertical,vertical,horizontal,vertical,vertical
1c,18,100157,2,7,71,19,F,NA,variable,homogeneous,6,absent,0.5714111328125,1,vertical,vertical,1,1.03528138074008,red,4,NaN,907.767656743878,368.891514305654,NaN,NaN,692.232343256122,831.108485694346,946.261991269517,808.883771293693,1054.0296480134,577.775285599347,907.767656743878,368.891514305654,653.738008730483,391.116228706307,545.970351986605,622.224714400653,0,0,0,4,0,0,vertical,vertical,horizontal,vertical,horizontal,horizontal
1c,18,100157,2,8,72,19,F,NA,variable,homogeneous,6,present,0.587772130966187,1,horizontal,horizontal,1,0.847051594474099,red,5,1,563.568117085469,504.475318678942,835.489140744817,852.518357529101,835.489140744817,852.518357529101,1036.43188291453,695.524681321058,1000.94274216971,443.006323791957,764.510859255183,347.4816424709,563.568117085469,504.475318678942,599.057257830286,756.993676208043,0,0,0,0,4,0,horizontal,horizontal,horizontal,horizontal,horizontal,horizontal
1c,18,100157,2,9,73,19,F,NA,variable,homogeneous,5,absent,0.594496965408325,1,horizontal,horizontal,1,0.929402125965465,green,3,NaN,1029.19248180629,488.215357568785,NaN,NaN,680.284751489598,825.151636179026,977.137884467044,783.431649086356,1029.19248180629,488.215357568785,764.510859255183,347.4816424709,548.874022981887,555.719714694933,0,0,0,0,4,0,0,NaN,vertical,vertical,horizontal,horizontal,vertical,none
1c,18,100157,2,10,74,19,F,NA,variable,homogeneous,4,present,0.671205997467041,1,horizontal,horizontal,1,1.03528138074008,red,1,2,716.980120613425,841.107236777826,1041.10723677783,683.019879386575,716.980120613425,841.107236777826,1041.10723677783,683.019879386575,883.019879386575,358.892763222174,558.892763222174,516.980120613425,0,0,0,0,4,0,0,0,NaN,NaN,horizontal,vertical,vertical,horizontal,none,none
1c,18,100157,2,11,75,19,F,NA,variable,homogeneous,6,present,0.870400905609131,1,horizontal,horizontal,1,1.07057446566495,green,5,6,653.738008730483,391.116228706307,545.970351986605,622.224714400653,692.232343256122,831.108485694346,946.261991269517,808.883771293693,1054.0296480134,577.775285599347,907.767656743878,368.891514305654,653.738008730483,391.116228706307,545.970351986605,622.224714400653,0,0,0,0,4,0,vertical,vertical,horizontal,horizontal,horizontal,horizontal
1c,18,100157,2,12,76,19,F,NA,variable,homogeneous,6,absent,0.531105041503906,1,horizontal,horizontal,1,0.752936701341109,red,5,NaN,616.568350913644,422.862115532956,NaN,NaN,738.309916622085,847.425410200379,983.431649086356,777.137884467044,1045.12173246427,529.712474266665,861.690083377915,352.574589799621,616.568350913644,422.862115532956,554.878267535729,670.287525733335,0,0,0,0,4,0,horizontal,vertical,vertical,horizontal,horizontal,horizontal
1c,18,100157,2,13,77,19,F,NA,variable,homogeneous,5,present,0.539835929870605,1,vertical,vertical,1,0.682350531491366,red,3,4,1011.40458100154,457.40580961496,729.712474266665,354.878267535729,712.784863451954,839.621618300407,1000.94274216971,756.993676208043,1011.40458100154,457.40580961496,729.712474266665,354.878267535729,545.155339110131,591.100628340862,0,0,0,0,4,0,0,NaN,vertical,vertical,vertical,vertical,horizontal,none
1c,18,100157,2,14,78,19,F,NA,variable,homogeneous,3,absent,0.714725971221924,1,horizontal,horizontal,1,0.999988295815208,green,3,NaN,782.212099195248,345.621167183745,NaN,NaN,588.595418998464,742.594190385041,1029.19248180629,711.784642431215,782.212099195248,345.621167183745,0,0,0,0,0,0,0,0,4,NaN,NaN,NaN,horizontal,horizontal,horizontal,none,none,none
1c,18,100157,2,15,79,19,F,NA,variable,homogeneous,5,present,0.730385065078735,1,vertical,vertical,1,0.658821808208119,red,5,4,586.139005173917,738.882953928832,601.827779828472,439.523300282291,865.998856501143,846.311085703712,1054.65053136242,613.345668841951,891.383827134052,361.936991243214,601.827779828472,439.523300282291,586.139005173917,738.882953928832,0,0,0,0,0,0,4,NaN,vertical,vertical,vertical,vertical,vertical,none
1c,18,100157,2,16,80,19,F,NA,variable,homogeneous,3,present,0.622061014175415,1,horizontal,horizontal,1,0.647057446566495,red,1,2,800,855,1020.83647796503,472.5,800,855,1020.83647796503,472.5,579.163522034968,472.5,0,0,0,0,0,0,4,0,0,NaN,NaN,NaN,horizontal,vertical,horizontal,none,none,none
1c,18,100157,2,17,81,19,F,NA,variable,homogeneous,3,absent,0.52469801902771,1,vertical,vertical,1,1.0941031889482,red,1,NaN,596.34794493794,753.462830903772,NaN,NaN,596.34794493794,753.462830903772,1034.72873763037,699.636437764765,768.923317431687,346.900731331463,0,0,0,0,0,0,4,0,0,NaN,NaN,NaN,vertical,horizontal,vertical,none,none,none
1c,18,100157,2,18,82,19,F,NA,variable,homogeneous,3,absent,0.504695892333984,1,vertical,vertical,1,0.658821808208119,green,3,NaN,545.349468637584,613.345668841951,NaN,NaN,938.882953928832,813.860994826083,915.767577433584,372.793336331966,545.349468637584,613.345668841951,0,0,0,0,0,0,0,0,4,NaN,NaN,NaN,horizontal,vertical,vertical,none,none,none
1c,18,100157,2,19,83,19,F,NA,variable,homogeneous,3,present,0.503084897994995,1,vertical,vertical,1,0.811758509549228,green,2,3,1003.65205506206,446.537169096228,565.271262369628,500.363562235235,831.076682568313,853.099268668537,1003.65205506206,446.537169096228,565.271262369628,500.363562235235,0,0,0,0,0,0,0,4,0,NaN,NaN,NaN,vertical,vertical,horizontal,none,none,none
1c,18,100157,2,20,84,19,F,NA,variable,homogeneous,4,present,0.481655120849609,1,vertical,vertical,1,0.811758509549228,green,1,4,653.738008730483,808.883771293693,591.116228706307,453.738008730483,653.738008730483,808.883771293693,1008.88377129369,746.261991269517,946.261991269517,391.116228706307,591.116228706307,453.738008730483,0,0,0,0,4,0,0,0,NaN,NaN,vertical,horizontal,horizontal,vertical,none,none
1c,18,100157,2,21,85,19,F,NA,variable,homogeneous,5,absent,0.525497913360596,1,vertical,vertical,1,0.69411489313299,red,1,NaN,764.510859255183,852.518357529101,NaN,NaN,764.510859255183,852.518357529101,1029.19248180629,711.784642431215,977.137884467044,416.568350913644,680.284751489598,374.848363820974,548.874022981887,644.280285305067,0,0,4,0,0,0,0,NaN,vertical,horizontal,vertical,vertical,vertical,none
1c,18,100157,2,22,86,19,F,NA,variable,homogeneous,4,absent,0.522881031036377,1,horizontal,horizontal,1,0.752936701341109,green,2,NaN,1043.85771277057,525.445215295702,NaN,NaN,874.554784704298,843.857712770574,1043.85771277057,525.445215295702,725.445215295702,356.142287229426,556.142287229426,674.554784704298,0,0,0,0,0,4,0,0,NaN,NaN,vertical,horizontal,vertical,vertical,none,none
1c,18,100157,2,23,87,19,F,NA,variable,homogeneous,6,absent,0.794631958007812,1,horizontal,horizontal,1,0.847051594474099,red,5,NaN,661.117046071168,386.139005173917,NaN,NaN,684.232422566416,827.206663668034,938.882953928832,813.860994826083,1054.65053136242,586.654331158049,915.767577433584,372.793336331966,661.117046071168,386.139005173917,545.349468637584,613.345668841951,0,0,0,0,4,0,vertical,vertical,horizontal,horizontal,horizontal,horizontal
1c,18,100157,2,24,88,19,F,NA,variable,homogeneous,3,absent,0.548362016677856,1,horizontal,horizontal,1,0.870580317757346,red,3,NaN,657.405809614959,388.595418998464,NaN,NaN,688.215357568785,829.192481806288,1054.37883281626,582.212099195248,657.405809614959,388.595418998464,0,0,0,0,0,0,0,0,4,NaN,NaN,NaN,horizontal,vertical,horizontal,none,none,none
1c,18,100157,2,25,89,19,F,NA,variable,homogeneous,3,present,0.478554010391235,1,horizontal,horizontal,1,0.764701062982733,red,3,2,712.784863451954,360.378381699593,1051.12597701811,644.280285305067,636.089159529932,795.341332995339,1051.12597701811,644.280285305067,712.784863451954,360.378381699593,0,0,0,0,0,0,0,0,4,NaN,NaN,NaN,vertical,horizontal,horizontal,none,none,none
1c,18,100157,2,26,90,19,F,NA,variable,homogeneous,4,absent,0.660114049911499,1,vertical,vertical,1,0.999988295815208,red,4,NaN,545.621167183745,617.787900804752,NaN,NaN,817.787900804752,854.378832816255,1054.37883281626,582.212099195248,782.212099195248,345.621167183745,545.621167183745,617.787900804752,0,0,0,0,0,0,0,4,NaN,NaN,horizontal,vertical,horizontal,vertical,none,none
1c,18,100157,2,27,91,19,F,NA,variable,homogeneous,5,present,0.574170112609863,1,horizontal,horizontal,1,0.823522871190851,red,4,5,568.891514305654,492.232343256122,626.090418184063,786.495193912888,923.626453162816,823.028025320546,1050.31493177915,551.343706178981,831.076682568313,346.900731331463,568.891514305654,492.232343256122,626.090418184063,786.495193912888,0,0,0,0,0,4,0,NaN,vertical,vertical,horizontal,horizontal,vertical,none
1c,18,100157,2,28,92,19,F,NA,variable,homogeneous,4,present,0.618299961090088,1,vertical,vertical,1,0.835287232832475,green,1,2,751.343706178981,850.314931779154,1050.31493177915,648.656293821019,751.343706178981,850.314931779154,1050.31493177915,648.656293821019,848.656293821019,349.685068220846,549.685068220846,551.343706178981,0,0,0,0,4,0,0,0,NaN,NaN,vertical,horizontal,horizontal,horizontal,none,none
1c,18,100157,2,29,93,19,F,NA,variable,homogeneous,5,absent,0.452171802520752,1,vertical,vertical,1,0.870580317757346,red,5,NaN,561.936991243214,691.383827134052,NaN,NaN,813.345668841951,854.650531362416,1046.31108570371,665.998856501143,938.882953928832,386.139005173917,639.523300282292,401.827779828472,561.936991243214,691.383827134052,0,0,0,0,0,0,4,NaN,horizontal,vertical,horizontal,horizontal,vertical,none
1c,18,100157,2,30,94,19,F,NA,variable,homogeneous,3,present,0.53337287902832,1,horizontal,horizontal,1,1.01175265745683,green,3,1,549.685068220846,551.343706178981,883.019879386575,841.107236777826,883.019879386575,841.107236777826,967.295052392579,407.549057043193,549.685068220846,551.343706178981,0,0,0,0,0,0,0,0,4,NaN,NaN,NaN,horizontal,vertical,horizontal,none,none,none
1c,18,100157,2,31,95,19,F,NA,variable,homogeneous,5,absent,0.487053871154785,1,horizontal,horizontal,1,0.929402125965465,red,5,NaN,554.878267535729,670.287525733335,NaN,NaN,791.100628340862,854.844660889869,1039.62161830041,687.215136548046,956.993676208043,399.057257830286,657.405809614959,388.595418998464,554.878267535729,670.287525733335,0,0,0,0,0,0,4,NaN,vertical,vertical,horizontal,horizontal,horizontal,none
1c,18,100157,2,32,96,19,F,NA,variable,homogeneous,6,absent,0.534345865249634,1,vertical,vertical,1,0.658821808208119,green,6,NaN,565.271262369628,699.636437764765,NaN,NaN,768.923317431687,853.099268668537,1003.65205506206,753.462830903772,1034.72873763037,500.363562235235,831.076682568313,346.900731331463,596.34794493794,446.537169096228,565.271262369628,699.636437764765,0,0,0,0,0,4,horizontal,vertical,horizontal,horizontal,horizontal,vertical
1c,18,100157,2,33,97,19,F,NA,variable,homogeneous,4,present,0.654407024383545,1,vertical,vertical,1,0.858815956115723,red,3,4,853.017481158529,350.57236181288,550.57236181288,546.982518841471,746.982518841471,849.42763818712,1049.42763818712,653.017481158529,853.017481158529,350.57236181288,550.57236181288,546.982518841471,0,0,0,0,0,0,4,0,NaN,NaN,vertical,vertical,vertical,horizontal,none,none
1c,18,100157,2,34,98,19,F,NA,variable,homogeneous,5,present,0.670270919799805,1,horizontal,horizontal,1,0.941166487607089,green,2,3,1011.40458100154,742.594190385041,1000.94274216971,443.006323791957,729.712474266665,845.121732464271,1011.40458100154,742.594190385041,1000.94274216971,443.006323791957,712.784863451954,360.378381699593,545.155339110131,608.899371659138,0,0,0,4,0,0,0,NaN,vertical,horizontal,vertical,vertical,vertical,none
1c,18,100157,2,35,99,19,F,NA,variable,homogeneous,4,present,0.61691689491272,1,horizontal,horizontal,1,1.03528138074008,green,3,4,688.215357568785,370.807518193712,570.807518193712,711.784642431215,911.784642431215,829.192481806288,1029.19248180629,488.215357568785,688.215357568785,370.807518193712,570.807518193712,711.784642431215,0,0,0,0,0,0,4,0,NaN,NaN,horizontal,horizontal,horizontal,vertical,none,none
1c,18,100157,2,36,100,19,F,NA,variable,homogeneous,5,present,0.645188093185425,1,horizontal,horizontal,1,1.01175265745683,red,5,3,639.523300282292,798.172220171528,813.345668841951,345.349468637584,938.882953928832,813.860994826083,1046.31108570371,534.001143498857,813.345668841951,345.349468637584,561.936991243214,508.616172865948,639.523300282292,798.172220171528,0,0,0,0,0,0,4,NaN,vertical,horizontal,horizontal,vertical,horizontal,none
1c,18,100157,2,37,101,19,F,NA,variable,homogeneous,5,present,0.595964908599854,1,vertical,vertical,1,1.08233882730657,green,4,2,576.971974679454,476.373546837184,1053.09926866854,568.923317431687,907.767656743878,831.108485694346,1053.09926866854,568.923317431687,848.656293821019,349.685068220846,576.971974679454,476.373546837184,613.504806087112,773.909581815937,0,0,0,0,0,4,0,NaN,vertical,horizontal,vertical,vertical,vertical,none
1c,18,100157,2,38,102,19,F,NA,variable,homogeneous,3,present,0.709022045135498,1,vertical,vertical,1,0.647057446566495,green,2,1,1020.83647796503,727.5,579.163522034968,727.5,579.163522034968,727.5,1020.83647796503,727.5,800,345,0,0,0,0,0,0,0,4,0,NaN,NaN,NaN,horizontal,vertical,vertical,none,none,none
1c,18,100157,2,39,103,19,F,NA,variable,homogeneous,4,absent,0.454951047897339,1,vertical,vertical,1,0.97645957253196,red,1,NaN,980.31222920257,780.31222920257,NaN,NaN,980.31222920257,780.31222920257,980.31222920257,419.68777079743,619.68777079743,419.68777079743,619.68777079743,780.31222920257,0,0,0,0,4,0,0,0,NaN,NaN,vertical,vertical,horizontal,vertical,none,none
1c,18,100157,2,40,104,19,F,NA,variable,homogeneous,3,absent,0.533044099807739,1,vertical,vertical,1,1.0470457423817,red,2,NaN,874.554784704298,356.142287229426,NaN,NaN,973.909581815937,786.495193912888,874.554784704298,356.142287229426,551.535633479765,657.362518857686,0,0,0,0,0,0,0,4,0,NaN,NaN,NaN,vertical,vertical,horizontal,none,none,none
1c,18,100157,2,41,105,19,F,NA,variable,homogeneous,6,absent,0.497450828552246,1,vertical,vertical,1,1.0941031889482,red,4,NaN,764.510859255183,347.4816424709,NaN,NaN,835.489140744817,852.518357529101,1036.43188291453,695.524681321058,1000.94274216971,443.006323791957,764.510859255183,347.4816424709,563.568117085469,504.475318678942,599.057257830286,756.993676208043,0,0,0,4,0,0,horizontal,horizontal,vertical,vertical,horizontal,horizontal
1c,18,100157,2,42,106,19,F,NA,variable,homogeneous,3,present,0.521269798278809,1,vertical,vertical,1,0.670586169849743,red,3,2,561.936991243214,508.616172865948,998.172220171528,439.523300282291,839.890788585259,851.86052685176,998.172220171528,439.523300282291,561.936991243214,508.616172865948,0,0,0,0,0,0,0,0,4,NaN,NaN,NaN,vertical,horizontal,vertical,none,none,none
1c,18,100157,2,43,107,19,F,NA,variable,homogeneous,4,absent,0.583972930908203,1,horizontal,horizontal,1,0.799994147907604,green,4,NaN,558.892763222174,683.019879386575,NaN,NaN,883.019879386575,841.107236777826,1041.10723677783,516.980120613425,716.980120613425,358.892763222174,558.892763222174,683.019879386575,0,0,0,0,0,0,0,4,NaN,NaN,horizontal,vertical,horizontal,horizontal,none,none
1c,18,100157,2,44,108,19,F,NA,variable,homogeneous,4,absent,0.736432075500488,1,horizontal,horizontal,1,0.635293084924871,red,1,NaN,632.704947607421,792.450942956807,NaN,NaN,632.704947607421,792.450942956807,992.450942956807,767.295052392579,967.295052392579,407.549057043193,607.549057043193,432.704947607421,0,0,0,0,4,0,0,0,NaN,NaN,horizontal,horizontal,horizontal,horizontal,none,none
1c,18,100157,2,45,109,19,F,NA,variable,homogeneous,3,absent,0.510216951370239,1,horizontal,horizontal,1,0.941166487607089,green,1,NaN,804.450363641507,854.96116226488,NaN,NaN,804.450363641507,854.96116226488,1018.57766167904,468.665290897936,576.971974679454,476.373546837184,0,0,0,0,0,0,4,0,0,NaN,NaN,NaN,horizontal,vertical,vertical,none,none,none
1c,18,100157,2,46,110,19,F,NA,variable,homogeneous,6,absent,0.667460918426514,0,horizontal,vertical,1,0.941166487607089,green,2,NaN,998.172220171528,760.476699717708,NaN,NaN,760.109211414741,851.86052685176,998.172220171528,760.476699717708,1038.06300875679,508.616172865948,839.890788585259,348.13947314824,601.827779828472,439.523300282291,561.936991243214,691.383827134052,0,4,0,0,0,0,vertical,horizontal,horizontal,vertical,vertical,vertical
1c,18,100157,2,47,111,19,F,NA,variable,homogeneous,6,present,0.78183388710022,1,horizontal,horizontal,1,0.847051594474099,red,1,2,844.280285305067,851.125977018113,1039.62161830041,687.215136548046,844.280285305067,851.125977018113,1039.62161830041,687.215136548046,995.341332995339,436.089159529932,755.719714694933,348.874022981887,560.378381699593,512.784863451954,604.658667004661,763.910840470068,4,0,0,0,0,0,horizontal,vertical,horizontal,vertical,vertical,horizontal
1c,18,100157,2,48,112,19,F,NA,variable,homogeneous,6,absent,0.722554922103882,1,vertical,vertical,1,0.647057446566495,green,4,NaN,696.282156015671,367.045908301137,NaN,NaN,903.717843984329,832.954091698863,1053.60308331891,626.654758133252,949.885239334581,393.700666434388,696.282156015671,367.045908301137,546.39691668109,573.345241866748,650.114760665419,806.299333565612,0,0,0,4,0,0,horizontal,horizontal,horizontal,vertical,horizontal,vertical
1c,18,100157,2,49,113,19,F,NA,variable,homogeneous,4,absent,0.672054052352905,1,vertical,vertical,1,0.729407978057861,green,3,NaN,629.371695378491,410.498069503264,NaN,NaN,970.628304621509,789.501930496736,989.501930496736,429.371695378491,629.371695378491,410.498069503264,610.498069503264,770.628304621509,0,0,0,0,0,0,4,0,NaN,NaN,horizontal,vertical,vertical,vertical,none,none
1c,18,100157,2,50,114,19,F,NA,variable,homogeneous,5,present,0.677865982055664,1,vertical,vertical,1,1.02351701909846,green,2,3,949.885239334581,806.299333565612,1042.51941165526,521.200666434388,650.114760665419,806.299333565612,949.885239334581,806.299333565612,1042.51941165526,521.200666434388,800,345,557.480588344736,521.200666434388,0,0,0,4,0,0,0,NaN,horizontal,vertical,vertical,vertical,horizontal,none
1c,18,100157,2,51,115,19,F,NA,variable,homogeneous,5,absent,0.585658073425293,1,horizontal,horizontal,1,0.705879254774614,red,4,NaN,768.923317431687,346.900731331463,NaN,NaN,676.373546837184,823.028025320546,973.909581815937,786.495193912888,1031.10848569435,492.232343256122,768.923317431687,346.900731331463,549.685068220846,551.343706178981,0,0,0,0,0,4,0,NaN,horizontal,vertical,vertical,horizontal,vertical,none
1c,18,100157,2,52,116,19,F,NA,variable,homogeneous,5,absent,0.507084846496582,0,vertical,horizontal,1,0.88234467939897,green,3,NaN,938.882953928832,386.139005173917,NaN,NaN,813.345668841951,854.650531362416,1046.31108570371,665.998856501143,938.882953928832,386.139005173917,639.523300282292,401.827779828472,561.936991243214,691.383827134052,0,0,0,0,4,0,0,NaN,horizontal,vertical,vertical,vertical,vertical,none
1c,18,100157,2,53,117,19,F,NA,variable,homogeneous,4,present,1.03427314758301,1,vertical,vertical,1,0.635293084924871,red,1,2,795.549636358493,854.96116226488,1054.96116226488,604.450363641507,795.549636358493,854.96116226488,1054.96116226488,604.450363641507,804.450363641507,345.03883773512,545.03883773512,595.549636358493,0,0,0,0,4,0,0,0,NaN,NaN,vertical,vertical,horizontal,vertical,none,none
1c,18,100157,2,54,118,19,F,NA,variable,homogeneous,6,present,0.757596015930176,1,vertical,vertical,1,0.717643616416238,green,2,1,1041.10723677783,683.019879386575,848.656293821019,850.314931779154,848.656293821019,850.314931779154,1041.10723677783,683.019879386575,992.450942956807,432.704947607421,751.343706178981,349.685068220846,558.892763222174,516.980120613425,607.549057043193,767.295052392579,0,4,0,0,0,0,vertical,vertical,horizontal,vertical,vertical,horizontal
1c,18,100157,2,55,119,19,F,NA,variable,homogeneous,6,present,0.506271839141846,1,vertical,vertical,1,1.07057446566495,red,5,2,545.349468637584,586.654331158049,1054.65053136242,613.345668841951,915.767577433584,827.206663668034,1054.65053136242,613.345668841951,938.882953928832,386.139005173917,684.232422566416,372.793336331966,545.349468637584,586.654331158049,661.117046071168,813.860994826083,0,0,0,0,4,0,horizontal,horizontal,vertical,horizontal,vertical,vertical
1c,18,100157,2,56,120,19,F,NA,variable,homogeneous,3,absent,0.498891115188599,1,vertical,vertical,1,0.705879254774614,green,3,NaN,632.704947607421,407.549057043193,NaN,NaN,716.980120613425,841.107236777826,1050.31493177915,551.343706178981,632.704947607421,407.549057043193,0,0,0,0,0,0,0,0,4,NaN,NaN,NaN,vertical,horizontal,vertical,none,none,none
1c,18,100157,2,57,121,19,F,NA,variable,homogeneous,4,absent,0.69091010093689,1,horizontal,horizontal,1,1.0941031889482,red,2,NaN,1031.10848569435,492.232343256122,NaN,NaN,907.767656743878,831.108485694346,1031.10848569435,492.232343256122,692.232343256122,368.891514305654,568.891514305654,707.767656743878,0,0,0,0,0,4,0,0,NaN,NaN,vertical,horizontal,vertical,horizontal,none,none
1c,18,100157,2,58,122,19,F,NA,variable,homogeneous,6,absent,0.882957935333252,1,horizontal,horizontal,1,0.905873402682218,green,4,NaN,839.890788585259,348.13947314824,NaN,NaN,760.109211414741,851.86052685176,998.172220171528,760.476699717708,1038.06300875679,508.616172865948,839.890788585259,348.13947314824,601.827779828472,439.523300282291,561.936991243214,691.383827134052,0,0,0,4,0,0,vertical,horizontal,horizontal,horizontal,horizontal,vertical
1c,18,100157,2,59,123,19,F,NA,variable,homogeneous,5,absent,0.689244985580444,1,vertical,vertical,1,0.611764361641624,green,3,NaN,857.362518857686,351.535633479765,NaN,NaN,899.636437764765,834.728737630372,1054.0296480134,577.775285599347,857.362518857686,351.535633479765,581.422338320961,468.665290897936,607.549057043193,767.295052392579,0,0,0,0,4,0,0,NaN,vertical,horizontal,vertical,horizontal,horizontal,none
1c,18,100157,2,60,124,19,F,NA,variable,homogeneous,3,present,0.577724933624268,1,vertical,vertical,1,0.729407978057861,red,2,3,923.626453162816,376.971974679454,545.03883773512,604.450363641507,931.334709102064,818.577661679039,923.626453162816,376.971974679454,545.03883773512,604.450363641507,0,0,0,0,0,0,0,4,0,NaN,NaN,NaN,horizontal,vertical,horizontal,none,none,none
1c,18,100157,2,61,125,19,F,NA,variable,homogeneous,5,absent,0.590410947799683,1,horizontal,horizontal,1,1.0470457423817,green,2,NaN,1052.5183575291,564.510859255183,NaN,NaN,911.784642431215,829.192481806288,1052.5183575291,564.510859255183,844.280285305067,348.874022981887,574.848363820974,480.284751489598,616.568350913644,777.137884467044,0,0,0,4,0,0,0,NaN,vertical,horizontal,horizontal,horizontal,vertical,none
1c,18,100157,2,62,126,19,F,NA,variable,homogeneous,4,absent,0.771492004394531,1,vertical,vertical,1,0.658821808208119,green,4,NaN,553.688914296288,665.998856501143,NaN,NaN,865.998856501143,846.311085703712,1046.31108570371,534.001143498857,734.001143498857,353.688914296288,553.688914296288,665.998856501143,0,0,0,0,0,0,0,4,NaN,NaN,vertical,horizontal,horizontal,vertical,none,none
1c,18,100157,2,63,127,19,F,NA,variable,homogeneous,3,present,0.654355049133301,1,horizontal,horizontal,1,0.764701062982733,green,3,1,704.475318678942,363.568117085469,643.006323791957,800.942742169714,643.006323791957,800.942742169714,1052.5183575291,635.489140744817,704.475318678942,363.568117085469,0,0,0,0,0,0,0,0,4,NaN,NaN,NaN,horizontal,vertical,horizontal,none,none,none
1c,18,100157,2,64,128,19,F,NA,variable,homogeneous,6,present,0.611901998519897,1,horizontal,horizontal,1,0.6,green,4,3,878.799333565612,357.480588344736,1049.42763818712,546.982518841471,721.200666434388,842.519411655264,970.628304621509,789.501930496736,1049.42763818712,546.982518841471,878.799333565612,357.480588344736,629.371695378491,410.498069503264,550.57236181288,653.017481158529,0,0,0,4,0,0,vertical,vertical,horizontal,horizontal,vertical,horizontal
1c,18,100157,3,1,129,19,F,NA,variable,homogeneous,3,absent,0.791262149810791,1,horizontal,horizontal,1,0.611764361641624,green,3,NaN,557.480588344736,678.799333565612,NaN,NaN,989.501930496736,770.628304621509,853.017481158529,350.57236181288,557.480588344736,678.799333565612,0,0,0,0,0,0,0,0,4,NaN,NaN,NaN,vertical,vertical,horizontal,none,none,none
1c,18,100157,3,2,130,19,F,NA,variable,homogeneous,4,present,0.496526002883911,1,vertical,vertical,1,0.647057446566495,red,4,1,551.535633479765,657.362518857686,857.362518857686,848.464366520235,857.362518857686,848.464366520235,1048.46436652023,542.637481142314,742.637481142314,351.535633479765,551.535633479765,657.362518857686,0,0,0,0,0,0,0,4,NaN,NaN,horizontal,vertical,horizontal,vertical,none,none
1c,18,100157,3,3,131,19,F,NA,variable,homogeneous,4,present,0.714668035507202,1,horizontal,horizontal,1,0.811758509549228,red,4,1,586.139005173917,738.882953928832,938.882953928832,813.860994826083,938.882953928832,813.860994826083,1013.86099482608,461.117046071168,661.117046071168,386.139005173917,586.139005173917,738.882953928832,0,0,0,0,0,0,0,4,NaN,NaN,vertical,vertical,horizontal,horizontal,none,none
1c,18,100157,3,4,132,19,F,NA,variable,homogeneous,6,present,0.925923109054565,1,horizontal,horizontal,1,0.847051594474099,green,2,1,1048.46436652023,657.362518857686,874.554784704298,843.857712770574,874.554784704298,843.857712770574,1048.46436652023,657.362518857686,973.909581815937,413.504806087112,725.445215295702,356.142287229426,551.535633479765,542.637481142314,626.090418184063,786.495193912888,0,4,0,0,0,0,horizontal,horizontal,vertical,horizontal,horizontal,horizontal
1c,18,100157,3,5,133,19,F,NA,variable,homogeneous,3,present,0.877754211425781,1,horizontal,horizontal,1,1.07057446566495,green,2,3,1053.09926866854,631.076682568313,700.363562235235,365.271262369628,646.537169096228,803.65205506206,1053.09926866854,631.076682568313,700.363562235235,365.271262369628,0,0,0,0,0,0,0,4,0,NaN,NaN,NaN,vertical,horizontal,horizontal,none,none,none
1c,18,100157,3,6,134,19,F,NA,variable,homogeneous,3,absent,0.481476068496704,1,horizontal,horizontal,1,0.905873402682218,red,1,NaN,650.114760665419,806.299333565612,NaN,NaN,650.114760665419,806.299333565612,1053.60308331891,626.654758133252,696.282156015671,367.045908301137,0,0,0,0,0,0,4,0,0,NaN,NaN,NaN,horizontal,horizontal,horizontal,none,none,none
1c,18,100157,3,7,135,19,F,NA,variable,homogeneous,5,absent,0.631899118423462,1,horizontal,horizontal,1,0.811758509549228,green,1,NaN,708.616172865948,838.063008756786,NaN,NaN,708.616172865948,838.063008756786,998.172220171528,760.476699717708,1013.86099482608,461.117046071168,734.001143498857,353.688914296288,545.349468637584,586.654331158049,0,0,4,0,0,0,0,NaN,horizontal,horizontal,vertical,vertical,horizontal,none
1c,18,100157,3,8,136,19,F,NA,variable,homogeneous,5,present,0.494960069656372,1,horizontal,horizontal,1,0.717643616416238,green,1,4,919.715248510402,825.151636179026,570.807518193712,488.215357568785,919.715248510402,825.151636179026,1051.12597701811,555.719714694933,835.489140744817,347.4816424709,570.807518193712,488.215357568785,622.862115532956,783.431649086356,0,0,4,0,0,0,0,NaN,horizontal,vertical,horizontal,horizontal,horizontal,none
1c,18,100157,3,9,137,19,F,NA,variable,homogeneous,3,present,0.464375972747803,1,vertical,vertical,1,0.964695210890336,red,1,3,610.498069503264,770.628304621509,746.982518841471,350.57236181288,610.498069503264,770.628304621509,1042.51941165526,678.799333565612,746.982518841471,350.57236181288,0,0,0,0,0,0,4,0,0,NaN,NaN,NaN,vertical,horizontal,vertical,none,none,none
1c,18,100157,3,10,138,19,F,NA,variable,homogeneous,6,present,0.67580509185791,1,horizontal,horizontal,1,0.69411489313299,red,2,5,1038.06300875679,691.383827134052,561.936991243214,508.616172865948,839.890788585259,851.86052685176,1038.06300875679,691.383827134052,998.172220171528,439.523300282291,760.109211414741,348.13947314824,561.936991243214,508.616172865948,601.827779828472,760.476699717708,0,4,0,0,0,0,horizontal,horizontal,horizontal,horizontal,vertical,vertical
1c,18,100157,3,11,139,19,F,NA,variable,homogeneous,5,absent,0.643394947052002,1,horizontal,horizontal,1,1.0941031889482,red,1,NaN,883.019879386575,841.107236777826,NaN,NaN,883.019879386575,841.107236777826,1054.96116226488,595.549636358493,874.554784704298,356.142287229426,591.116228706307,453.738008730483,596.34794493794,753.462830903772,0,0,4,0,0,0,0,NaN,horizontal,horizontal,vertical,horizontal,vertical,none
1c,18,100157,3,12,140,19,F,NA,variable,homogeneous,6,absent,0.612310886383057,1,vertical,vertical,1,0.6,green,5,NaN,643.006323791957,399.057257830286,NaN,NaN,704.475318678942,836.431882914531,956.993676208043,800.942742169714,1052.5183575291,564.510859255183,895.524681321058,363.568117085469,643.006323791957,399.057257830286,547.481642470899,635.489140744817,0,0,0,0,4,0,vertical,horizontal,horizontal,vertical,vertical,vertical
1c,18,100157,3,13,141,19,F,NA,variable,homogeneous,4,absent,0.654259920120239,1,vertical,vertical,1,0.870580317757346,red,2,NaN,1003.65205506206,753.462830903772,NaN,NaN,646.537169096228,803.65205506206,1003.65205506206,753.462830903772,953.462830903772,396.34794493794,596.34794493794,446.537169096228,0,0,0,0,0,4,0,0,NaN,NaN,vertical,vertical,vertical,vertical,none,none
1c,18,100157,3,14,142,19,F,NA,variable,homogeneous,6,absent,0.652425050735474,1,vertical,vertical,1,0.847051594474099,green,6,NaN,586.139005173917,738.882953928832,NaN,NaN,813.345668841951,854.650531362416,1027.20666366803,715.767577433584,1013.86099482608,461.117046071168,786.654331158049,345.349468637584,572.793336331966,484.232422566416,586.139005173917,738.882953928832,0,0,0,0,0,4,horizontal,vertical,vertical,vertical,horizontal,vertical
1c,18,100157,3,15,143,19,F,NA,variable,homogeneous,3,present,0.709394931793213,1,horizontal,horizontal,1,0.78822978626598,green,2,3,1051.12597701811,644.280285305067,712.784863451954,360.378381699593,636.089159529932,795.341332995339,1051.12597701811,644.280285305067,712.784863451954,360.378381699593,0,0,0,0,0,0,0,4,0,NaN,NaN,NaN,horizontal,horizontal,vertical,none,none,none
1c,18,100157,3,16,144,19,F,NA,variable,homogeneous,6,present,0.791446924209595,1,horizontal,horizontal,1,0.97645957253196,red,2,4,1051.86052685176,639.890788585259,708.616172865948,361.936991243214,891.383827134052,838.063008756786,1051.86052685176,639.890788585259,960.476699717708,401.827779828472,708.616172865948,361.936991243214,548.13947314824,560.109211414741,639.523300282292,798.172220171528,0,4,0,0,0,0,horizontal,horizontal,vertical,vertical,vertical,vertical
1c,18,100157,3,17,145,19,F,NA,variable,homogeneous,5,present,0.562163829803467,1,vertical,vertical,1,0.741172339699485,green,2,5,1054.96116226488,604.450363641507,591.116228706307,746.261991269517,874.554784704298,843.857712770574,1054.96116226488,604.450363641507,883.019879386575,358.892763222174,596.34794493794,446.537169096228,591.116228706307,746.261991269517,0,0,0,4,0,0,0,NaN,vertical,vertical,vertical,vertical,vertical,none
1c,18,100157,3,18,146,19,F,NA,variable,homogeneous,4,present,0.584528923034668,1,vertical,vertical,1,0.741172339699485,red,4,2,616.568350913644,777.137884467044,983.431649086356,422.862115532956,977.137884467044,783.431649086356,983.431649086356,422.862115532956,622.862115532956,416.568350913644,616.568350913644,777.137884467044,0,0,0,0,0,0,0,4,NaN,NaN,vertical,vertical,horizontal,vertical,none,none
1c,18,100157,3,19,147,19,F,NA,variable,homogeneous,6,absent,0.755189895629883,1,horizontal,horizontal,1,0.952930849248713,red,3,NaN,1018.57766167904,468.665290897936,NaN,NaN,804.450363641507,854.96116226488,1023.02802532055,723.626453162816,1018.57766167904,468.665290897936,795.549636358493,345.03883773512,576.971974679454,476.373546837184,581.422338320961,731.334709102064,0,0,4,0,0,0,horizontal,horizontal,horizontal,horizontal,vertical,horizontal
1c,18,100157,3,20,148,19,F,NA,variable,homogeneous,6,present,0.94017505645752,1,vertical,vertical,1,1.08233882730657,red,2,5,986.495193912888,773.909581815937,613.504806087112,426.090418184063,742.637481142314,848.464366520235,986.495193912888,773.909581815937,1043.85771277057,525.445215295702,857.362518857686,351.535633479765,613.504806087112,426.090418184063,556.142287229426,674.554784704298,0,4,0,0,0,0,vertical,vertical,horizontal,vertical,horizontal,horizontal
1c,18,100157,3,21,149,19,F,NA,variable,homogeneous,5,present,0.62415885925293,1,vertical,vertical,1,0.835287232832475,green,1,4,927.5,820.836477965032,567.045908301137,496.282156015671,927.5,820.836477965032,1049.42763818712,546.982518841471,826.654758133252,346.39691668109,567.045908301137,496.282156015671,629.371695378491,789.501930496736,0,0,4,0,0,0,0,NaN,vertical,vertical,vertical,horizontal,vertical,none
1c,18,100157,3,22,150,19,F,NA,variable,homogeneous,6,absent,0.740609884262085,1,vertical,vertical,1,0.799994147907604,red,6,NaN,546.900731331463,631.076682568313,NaN,NaN,700.363562235235,834.728737630372,953.462830903772,803.65205506206,1053.09926866854,568.923317431687,899.636437764765,365.271262369628,646.537169096228,396.34794493794,546.900731331463,631.076682568313,0,0,0,0,0,4,horizontal,horizontal,horizontal,horizontal,horizontal,vertical
1c,18,100157,3,23,151,19,F,NA,variable,homogeneous,4,absent,0.878931999206543,1,horizontal,horizontal,1,0.964695210890336,green,1,NaN,878.799333565612,842.519411655264,NaN,NaN,878.799333565612,842.519411655264,1042.51941165526,521.200666434388,721.200666434388,357.480588344736,557.480588344736,678.799333565612,0,0,0,0,4,0,0,0,NaN,NaN,horizontal,horizontal,vertical,vertical,none,none
1c,18,100157,3,24,152,19,F,NA,variable,homogeneous,4,absent,0.834187030792236,1,vertical,vertical,1,0.858815956115723,green,4,NaN,556.142287229426,525.445215295702,NaN,NaN,725.445215295702,843.857712770574,1043.85771277057,674.554784704298,874.554784704298,356.142287229426,556.142287229426,525.445215295702,0,0,0,0,0,0,0,4,NaN,NaN,horizontal,vertical,horizontal,vertical,none,none
1c,18,100157,3,25,153,19,F,NA,variable,homogeneous,4,present,0.725667953491211,1,horizontal,horizontal,1,0.941166487607089,red,1,3,632.704947607421,792.450942956807,967.295052392579,407.549057043193,632.704947607421,792.450942956807,992.450942956807,767.295052392579,967.295052392579,407.549057043193,607.549057043193,432.704947607421,0,0,0,0,4,0,0,0,NaN,NaN,horizontal,vertical,horizontal,vertical,none,none
1c,18,100157,3,26,154,19,F,NA,variable,homogeneous,6,absent,0.70179009437561,1,vertical,vertical,1,0.670586169849743,red,5,NaN,629.371695378491,410.498069503264,NaN,NaN,721.200666434388,842.519411655264,970.628304621509,789.501930496736,1049.42763818712,546.982518841471,878.799333565612,357.480588344736,629.371695378491,410.498069503264,550.57236181288,653.017481158529,0,0,0,0,4,0,horizontal,vertical,horizontal,vertical,vertical,vertical
1c,18,100157,3,27,155,19,F,NA,variable,homogeneous,4,present,0.652451038360596,1,vertical,vertical,1,0.623528723283247,green,1,3,773.345241866748,853.60308331891,826.654758133252,346.39691668109,773.345241866748,853.60308331891,1053.60308331891,626.654758133252,826.654758133252,346.39691668109,546.39691668109,573.345241866748,0,0,0,0,4,0,0,0,NaN,NaN,vertical,vertical,horizontal,horizontal,none,none
1c,18,100157,3,28,156,19,F,NA,variable,homogeneous,3,present,0.702314138412476,1,horizontal,horizontal,1,1.03528138074008,red,3,1,546.39691668109,573.345241866748,903.717843984329,832.954091698863,903.717843984329,832.954091698863,949.885239334581,393.700666434388,546.39691668109,573.345241866748,0,0,0,0,0,0,0,0,4,NaN,NaN,NaN,vertical,vertical,horizontal,none,none,none
1c,18,100157,3,29,157,19,F,NA,variable,homogeneous,6,present,1.33496403694153,1,vertical,vertical,1,0.917637764323841,red,2,1,1008.88377129369,746.261991269517,777.775285599347,854.029648013395,777.775285599347,854.029648013395,1008.88377129369,746.261991269517,1031.10848569435,492.232343256122,822.224714400653,345.970351986605,591.116228706307,453.738008730483,568.891514305654,707.767656743878,0,4,0,0,0,0,vertical,vertical,horizontal,horizontal,vertical,horizontal
1c,18,100157,3,30,158,19,F,NA,variable,homogeneous,5,absent,0.599554061889648,1,horizontal,horizontal,1,0.88234467939897,red,4,NaN,643.006323791957,399.057257830286,NaN,NaN,808.899371659138,854.844660889869,1045.12173246427,670.287525733335,942.594190385041,388.595418998464,643.006323791957,399.057257830286,560.378381699593,687.215136548046,0,0,0,0,0,4,0,NaN,vertical,vertical,horizontal,horizontal,vertical,none
1c,18,100157,3,31,159,19,F,NA,variable,homogeneous,6,absent,0.808383941650391,0,horizontal,vertical,1,0.635293084924871,green,2,NaN,1053.60308331891,626.654758133252,NaN,NaN,903.717843984329,832.954091698863,1053.60308331891,626.654758133252,949.885239334581,393.700666434388,696.282156015671,367.045908301137,546.39691668109,573.345241866748,650.114760665419,806.299333565612,0,4,0,0,0,0,horizontal,horizontal,vertical,vertical,horizontal,horizontal
1c,18,100157,3,32,160,19,F,NA,variable,homogeneous,5,absent,0.690687894821167,1,horizontal,horizontal,1,0.905873402682218,green,4,NaN,561.936991243214,508.616172865948,NaN,NaN,938.882953928832,813.860994826083,1046.31108570371,534.001143498857,813.345668841951,345.349468637584,561.936991243214,508.616172865948,639.523300282292,798.172220171528,0,0,0,0,0,4,0,NaN,horizontal,horizontal,horizontal,horizontal,vertical,none
1c,18,100157,3,33,161,19,F,NA,variable,homogeneous,3,present,0.586337089538574,1,horizontal,horizontal,1,0.88234467939897,red,2,1,1020.83647796503,472.5,800,855,800,855,1020.83647796503,472.5,579.163522034968,472.5,0,0,0,0,0,0,0,4,0,NaN,NaN,NaN,vertical,horizontal,horizontal,none,none,none
1c,18,100157,3,34,162,19,F,NA,variable,homogeneous,6,absent,0.901121854782104,1,horizontal,horizontal,1,0.952930849248713,green,3,NaN,1027.20666366803,484.232422566416,NaN,NaN,786.654331158049,854.650531362416,1013.86099482608,738.882953928832,1027.20666366803,484.232422566416,813.345668841951,345.349468637584,586.139005173917,461.117046071168,572.793336331966,715.767577433584,0,0,4,0,0,0,horizontal,vertical,horizontal,vertical,vertical,horizontal
1c,18,100157,3,35,163,19,F,NA,variable,homogeneous,3,absent,0.50104808807373,1,vertical,vertical,1,1.0941031889482,red,3,NaN,791.100628340862,345.155339110131,NaN,NaN,583.747735480111,735.129412379467,1025.15163617903,719.715248510402,791.100628340862,345.155339110131,0,0,0,0,0,0,0,0,4,NaN,NaN,NaN,vertical,vertical,vertical,none,none,none
1c,18,100157,3,36,164,19,F,NA,variable,homogeneous,4,absent,0.526157140731812,1,horizontal,horizontal,1,0.941166487607089,green,4,NaN,619.68777079743,780.31222920257,NaN,NaN,980.31222920257,780.31222920257,980.31222920257,419.68777079743,619.68777079743,419.68777079743,619.68777079743,780.31222920257,0,0,0,0,0,0,0,4,NaN,NaN,vertical,vertical,horizontal,horizontal,none,none
1c,18,100157,3,37,165,19,F,NA,variable,homogeneous,4,present,0.603471040725708,1,vertical,vertical,1,0.929402125965465,green,4,3,546.39691668109,573.345241866748,826.654758133252,346.39691668109,773.345241866748,853.60308331891,1053.60308331891,626.654758133252,826.654758133252,346.39691668109,546.39691668109,573.345241866748,0,0,0,0,0,0,0,4,NaN,NaN,horizontal,vertical,vertical,vertical,none,none
1c,18,100157,3,38,166,19,F,NA,variable,homogeneous,5,present,0.506527900695801,1,horizontal,horizontal,1,0.941166487607089,red,5,4,548.13947314824,560.109211414741,760.109211414741,348.13947314824,684.232422566416,827.206663668034,980.31222920257,780.31222920257,1027.20666366803,484.232422566416,760.109211414741,348.13947314824,548.13947314824,560.109211414741,0,0,0,0,0,0,4,NaN,horizontal,horizontal,horizontal,horizontal,horizontal,none
1c,18,100157,3,39,167,19,F,NA,variable,homogeneous,4,absent,0.889117956161499,1,horizontal,horizontal,1,0.811758509549228,red,1,NaN,786.654331158049,854.650531362416,NaN,NaN,786.654331158049,854.650531362416,1054.65053136242,613.345668841951,813.345668841951,345.349468637584,545.349468637584,586.654331158049,0,0,0,0,4,0,0,0,NaN,NaN,horizontal,vertical,horizontal,vertical,none,none
1c,18,100157,3,40,168,19,F,NA,variable,homogeneous,3,absent,0.633693933486938,1,horizontal,horizontal,1,0.929402125965465,green,2,NaN,931.334709102064,381.422338320961,NaN,NaN,923.626453162816,823.028025320546,931.334709102064,381.422338320961,545.03883773512,595.549636358493,0,0,0,0,0,0,0,4,0,NaN,NaN,NaN,vertical,horizontal,horizontal,none,none,none
1c,18,100157,3,41,169,19,F,NA,variable,homogeneous,3,absent,0.622987031936646,1,vertical,vertical,1,1.02351701909846,green,2,NaN,835.489140744817,347.4816424709,NaN,NaN,1000.94274216971,756.993676208043,835.489140744817,347.4816424709,563.568117085469,695.524681321058,0,0,0,0,0,0,0,4,0,NaN,NaN,NaN,vertical,vertical,vertical,none,none,none
1c,18,100157,3,42,170,19,F,NA,variable,homogeneous,5,present,0.942464113235474,1,vertical,vertical,1,0.741172339699485,red,1,2,712.784863451954,839.621618300407,1000.94274216971,756.993676208043,712.784863451954,839.621618300407,1000.94274216971,756.993676208043,1011.40458100154,457.40580961496,729.712474266665,354.878267535729,545.155339110131,591.100628340862,0,0,4,0,0,0,0,NaN,vertical,vertical,horizontal,horizontal,horizontal,none
1c,18,100157,3,43,171,19,F,NA,variable,homogeneous,6,present,1.07519912719727,1,vertical,vertical,1,0.88234467939897,green,6,3,583.747735480111,735.129412379467,1016.25226451989,464.870587620533,808.899371659138,854.844660889869,1025.15163617903,719.715248510402,1016.25226451989,464.870587620533,791.100628340862,345.155339110131,574.848363820974,480.284751489598,583.747735480111,735.129412379467,0,0,0,0,0,4,vertical,vertical,vertical,horizontal,vertical,vertical
1c,18,100157,3,44,172,19,F,NA,variable,homogeneous,5,absent,0.987612009048462,1,vertical,vertical,1,0.941166487607089,red,2,NaN,1054.96116226488,604.450363641507,NaN,NaN,874.554784704298,843.857712770574,1054.96116226488,604.450363641507,883.019879386575,358.892763222174,596.34794493794,446.537169096228,591.116228706307,746.261991269517,0,0,0,4,0,0,0,NaN,vertical,vertical,vertical,horizontal,horizontal,none
1c,18,100157,3,45,173,19,F,NA,variable,homogeneous,4,absent,0.659723043441772,1,vertical,vertical,1,0.799994147907604,green,2,NaN,1018.57766167904,468.665290897936,NaN,NaN,931.334709102064,818.577661679039,1018.57766167904,468.665290897936,668.665290897936,381.422338320961,581.422338320961,731.334709102064,0,0,0,0,0,4,0,0,NaN,NaN,horizontal,vertical,vertical,horizontal,none,none
1c,18,100157,3,46,174,19,F,NA,variable,homogeneous,5,absent,0.703709840774536,1,vertical,vertical,1,0.917637764323841,red,2,NaN,1052.5183575291,564.510859255183,NaN,NaN,911.784642431215,829.192481806288,1052.5183575291,564.510859255183,844.280285305067,348.874022981887,574.848363820974,480.284751489598,616.568350913644,777.137884467044,0,0,0,4,0,0,0,NaN,horizontal,vertical,vertical,vertical,horizontal,none
1c,18,100157,3,47,175,19,F,NA,variable,homogeneous,6,present,0.741657018661499,1,horizontal,horizontal,1,0.999988295815208,green,1,5,808.899371659138,854.844660889869,574.848363820974,480.284751489598,808.899371659138,854.844660889869,1025.15163617903,719.715248510402,1016.25226451989,464.870587620533,791.100628340862,345.155339110131,574.848363820974,480.284751489598,583.747735480111,735.129412379467,4,0,0,0,0,0,horizontal,vertical,horizontal,horizontal,vertical,vertical
1c,18,100157,3,48,176,19,F,NA,variable,homogeneous,3,absent,0.847193956375122,1,vertical,vertical,1,0.917637764323841,green,2,NaN,1020.83647796503,727.5,NaN,NaN,579.163522034968,727.5,1020.83647796503,727.5,800,345,0,0,0,0,0,0,0,4,0,NaN,NaN,NaN,vertical,vertical,horizontal,none,none,none
1c,18,100157,3,49,177,19,F,NA,variable,homogeneous,3,present,0.676836013793945,1,vertical,vertical,1,0.623528723283247,green,3,2,622.862115532956,416.568350913644,1047.42541020038,538.309916622085,729.712474266665,845.121732464271,1047.42541020038,538.309916622085,622.862115532956,416.568350913644,0,0,0,0,0,0,0,0,4,NaN,NaN,NaN,vertical,horizontal,vertical,none,none,none
1c,18,100157,3,50,178,19,F,NA,variable,homogeneous,5,present,0.545536041259766,1,horizontal,horizontal,1,0.952930849248713,green,2,5,1042.51941165526,678.799333565612,557.480588344736,678.799333565612,800,855,1042.51941165526,678.799333565612,949.885239334581,393.700666434388,650.114760665419,393.700666434388,557.480588344736,678.799333565612,0,0,0,4,0,0,0,NaN,vertical,horizontal,vertical,horizontal,horizontal,none
1c,18,100157,3,51,179,19,F,NA,variable,homogeneous,4,absent,0.795056104660034,1,horizontal,horizontal,1,0.717643616416238,red,4,NaN,556.142287229426,525.445215295702,NaN,NaN,725.445215295702,843.857712770574,1043.85771277057,674.554784704298,874.554784704298,356.142287229426,556.142287229426,525.445215295702,0,0,0,0,0,0,0,4,NaN,NaN,vertical,horizontal,vertical,horizontal,none,none
1c,18,100157,3,52,180,19,F,NA,variable,homogeneous,4,present,0.82137393951416,1,horizontal,horizontal,1,0.917637764323841,green,3,1,734.001143498857,353.688914296288,865.998856501143,846.311085703712,865.998856501143,846.311085703712,1046.31108570371,534.001143498857,734.001143498857,353.688914296288,553.688914296288,665.998856501143,0,0,0,0,0,0,4,0,NaN,NaN,vertical,vertical,horizontal,vertical,none,none
1c,18,100157,3,53,181,19,F,NA,variable,homogeneous,4,absent,0.765040159225464,1,vertical,vertical,1,0.752936701341109,red,1,NaN,712.784863451954,839.621618300407,NaN,NaN,712.784863451954,839.621618300407,1039.62161830041,687.215136548046,887.215136548046,360.378381699593,560.378381699593,512.784863451954,0,0,0,0,4,0,0,0,NaN,NaN,vertical,horizontal,vertical,horizontal,none,none
1c,18,100157,3,54,182,19,F,NA,variable,homogeneous,6,absent,0.972356081008911,1,horizontal,horizontal,1,0.776465424624356,red,3,NaN,1034.72873763037,500.363562235235,NaN,NaN,768.923317431687,853.099268668537,1003.65205506206,753.462830903772,1034.72873763037,500.363562235235,831.076682568313,346.900731331463,596.34794493794,446.537169096228,565.271262369628,699.636437764765,0,0,4,0,0,0,vertical,horizontal,horizontal,vertical,vertical,vertical
1c,18,100157,3,55,183,19,F,NA,variable,homogeneous,4,present,0.631845951080322,1,horizontal,horizontal,1,0.611764361641624,green,2,1,1029.19248180629,711.784642431215,688.215357568785,829.192481806288,688.215357568785,829.192481806288,1029.19248180629,711.784642431215,911.784642431215,370.807518193712,570.807518193712,488.215357568785,0,0,0,0,0,4,0,0,NaN,NaN,horizontal,horizontal,vertical,vertical,none,none
1c,18,100157,3,56,184,19,F,NA,variable,homogeneous,5,absent,0.625982999801636,1,vertical,vertical,1,1.08233882730657,green,4,NaN,607.549057043193,432.704947607421,NaN,NaN,857.362518857686,848.464366520235,1054.0296480134,622.224714400653,899.636437764765,365.271262369628,607.549057043193,432.704947607421,581.422338320961,731.334709102064,0,0,0,0,0,4,0,NaN,horizontal,horizontal,vertical,vertical,horizontal,none
1c,18,100157,3,57,185,19,F,NA,variable,homogeneous,3,present,0.900703907012939,1,vertical,vertical,1,0.88234467939897,red,1,2,956.993676208043,800.942742169714,895.524681321058,363.568117085469,956.993676208043,800.942742169714,895.524681321058,363.568117085469,547.481642470899,635.489140744817,0,0,0,0,0,0,4,0,0,NaN,NaN,NaN,vertical,horizontal,vertical,none,none,none
1c,18,100157,3,58,186,19,F,NA,variable,homogeneous,3,absent,0.67202615737915,1,horizontal,horizontal,1,0.858815956115723,red,1,NaN,610.498069503264,770.628304621509,NaN,NaN,610.498069503264,770.628304621509,1042.51941165526,678.799333565612,746.982518841471,350.57236181288,0,0,0,0,0,0,4,0,0,NaN,NaN,NaN,horizontal,vertical,vertical,none,none,none
1c,18,100157,3,59,187,19,F,NA,variable,homogeneous,5,absent,0.643684148788452,1,vertical,vertical,1,0.705879254774614,green,3,NaN,1018.57766167904,468.665290897936,NaN,NaN,700.363562235235,834.728737630372,992.450942956807,767.295052392579,1018.57766167904,468.665290897936,742.637481142314,351.535633479765,545.970351986605,577.775285599347,0,0,0,0,4,0,0,NaN,vertical,vertical,vertical,vertical,horizontal,none
1c,18,100157,3,60,188,19,F,NA,variable,homogeneous,6,present,0.802865982055664,1,vertical,vertical,1,0.905873402682218,green,3,2,1049.42763818712,546.982518841471,970.628304621509,789.501930496736,721.200666434388,842.519411655264,970.628304621509,789.501930496736,1049.42763818712,546.982518841471,878.799333565612,357.480588344736,629.371695378491,410.498069503264,550.57236181288,653.017481158529,0,0,4,0,0,0,horizontal,vertical,vertical,vertical,vertical,vertical
1c,18,100157,3,61,189,19,F,NA,variable,homogeneous,5,present,0.833086013793945,1,vertical,vertical,1,0.69411489313299,red,3,2,938.882953928832,386.139005173917,1046.31108570371,665.998856501143,813.345668841951,854.650531362416,1046.31108570371,665.998856501143,938.882953928832,386.139005173917,639.523300282292,401.827779828472,561.936991243214,691.383827134052,0,0,0,0,4,0,0,NaN,horizontal,vertical,vertical,vertical,vertical,none
1c,18,100157,3,62,190,19,F,NA,variable,homogeneous,3,absent,0.603448867797852,1,vertical,vertical,1,0.88234467939897,red,3,NaN,545.155339110131,608.899371659138,NaN,NaN,935.129412379467,816.252264519889,919.715248510402,374.848363820974,545.155339110131,608.899371659138,0,0,0,0,0,0,0,0,4,NaN,NaN,NaN,horizontal,horizontal,vertical,none,none,none
1c,18,100157,3,63,191,19,F,NA,variable,homogeneous,5,present,0.528626918792725,1,horizontal,horizontal,1,1.0470457423817,red,4,5,596.34794493794,446.537169096228,591.116228706307,746.261991269517,874.554784704298,843.857712770574,1054.96116226488,604.450363641507,883.019879386575,358.892763222174,596.34794493794,446.537169096228,591.116228706307,746.261991269517,0,0,0,0,0,4,0,NaN,vertical,vertical,horizontal,horizontal,horizontal,none
1c,18,100157,3,64,192,19,F,NA,variable,homogeneous,3,present,0.686663150787354,1,vertical,vertical,1,0.964695210890336,green,1,2,791.100628340862,854.844660889869,1025.15163617903,480.284751489598,791.100628340862,854.844660889869,1025.15163617903,480.284751489598,583.747735480111,464.870587620533,0,0,0,0,0,0,4,0,0,NaN,NaN,NaN,vertical,vertical,vertical,none,none,none
1c,18,100157,4,1,193,19,F,NA,variable,homogeneous,4,absent,0.780020952224731,1,horizontal,horizontal,1,1.07057446566495,green,3,NaN,800,345,NaN,NaN,800,855,1055,600,800,345,545,600,0,0,0,0,0,0,4,0,NaN,NaN,horizontal,vertical,horizontal,vertical,none,none
1c,18,100157,4,2,194,19,F,NA,variable,homogeneous,6,present,0.637355804443359,1,vertical,vertical,1,1.08233882730657,red,4,5,927.5,379.163522034968,672.5,379.163522034968,672.5,820.836477965032,927.5,820.836477965032,1055,600,927.5,379.163522034968,672.5,379.163522034968,545,600,0,0,0,4,0,0,horizontal,horizontal,horizontal,vertical,vertical,horizontal
1c,18,100157,4,3,195,19,F,NA,variable,homogeneous,3,absent,0.499860048294067,1,vertical,vertical,1,0.88234467939897,green,2,NaN,1048.46436652023,542.637481142314,NaN,NaN,725.445215295702,843.857712770574,1048.46436652023,542.637481142314,626.090418184063,413.504806087112,0,0,0,0,0,0,0,4,0,NaN,NaN,NaN,horizontal,vertical,horizontal,none,none,none
1c,18,100157,4,4,196,19,F,NA,variable,homogeneous,3,present,0.462491035461426,1,vertical,vertical,1,0.811758509549228,red,2,1,923.626453162816,376.971974679454,931.334709102064,818.577661679039,931.334709102064,818.577661679039,923.626453162816,376.971974679454,545.03883773512,604.450363641507,0,0,0,0,0,0,0,4,0,NaN,NaN,NaN,horizontal,vertical,vertical,none,none,none
1c,18,100157,4,5,197,19,F,NA,variable,homogeneous,4,present,0.463687896728516,1,vertical,vertical,1,0.6,red,3,2,672.5,379.163522034968,1020.83647796503,472.5,927.5,820.836477965032,1020.83647796503,472.5,672.5,379.163522034968,579.163522034968,727.5,0,0,0,0,0,0,4,0,NaN,NaN,horizontal,vertical,vertical,vertical,none,none
1c,18,100157,4,6,198,19,F,NA,variable,homogeneous,4,absent,0.503643035888672,1,horizontal,horizontal,1,0.705879254774614,red,2,NaN,1051.12597701811,644.280285305067,NaN,NaN,755.719714694933,851.125977018113,1051.12597701811,644.280285305067,844.280285305067,348.874022981887,548.874022981887,555.719714694933,0,0,0,0,0,4,0,0,NaN,NaN,horizontal,horizontal,horizontal,horizontal,none,none
1c,18,100157,4,7,199,19,F,NA,variable,homogeneous,4,absent,0.537853956222534,1,vertical,vertical,1,0.611764361641624,green,3,NaN,865.998856501143,353.688914296288,NaN,NaN,734.001143498857,846.311085703712,1046.31108570371,665.998856501143,865.998856501143,353.688914296288,553.688914296288,534.001143498857,0,0,0,0,0,0,4,0,NaN,NaN,vertical,vertical,vertical,vertical,none,none
1c,18,100157,4,8,200,19,F,NA,variable,homogeneous,6,absent,0.361638069152832,1,vertical,vertical,1,0.835287232832475,green,4,NaN,857.362518857686,351.535633479765,NaN,NaN,742.637481142314,848.464366520235,986.495193912888,773.909581815937,1043.85771277057,525.445215295702,857.362518857686,351.535633479765,613.504806087112,426.090418184063,556.142287229426,674.554784704298,0,0,0,4,0,0,horizontal,horizontal,vertical,vertical,vertical,vertical
1c,18,100157,4,9,201,19,F,NA,variable,homogeneous,5,absent,0.415552854537964,1,horizontal,horizontal,1,0.941166487607089,green,3,NaN,923.626453162816,376.971974679454,NaN,NaN,831.076682568313,853.099268668537,1050.31493177915,648.656293821019,923.626453162816,376.971974679454,626.090418184063,413.504806087112,568.891514305654,707.767656743878,0,0,0,0,4,0,0,NaN,vertical,vertical,horizontal,horizontal,horizontal,none
1c,18,100157,4,10,202,19,F,NA,variable,homogeneous,4,present,0.601861953735352,1,vertical,vertical,1,0.894109041040594,green,4,1,607.549057043193,432.704947607421,632.704947607421,792.450942956807,632.704947607421,792.450942956807,992.450942956807,767.295052392579,967.295052392579,407.549057043193,607.549057043193,432.704947607421,0,0,0,0,0,0,0,4,NaN,NaN,horizontal,horizontal,horizontal,vertical,none,none
1c,18,100157,4,11,203,19,F,NA,variable,homogeneous,6,absent,0.55351996421814,1,horizontal,horizontal,1,0.764701062982733,green,4,NaN,746.982518841471,350.57236181288,NaN,NaN,853.017481158529,849.42763818712,1042.51941165526,678.799333565612,989.501930496736,429.371695378491,746.982518841471,350.57236181288,557.480588344736,521.200666434388,610.498069503264,770.628304621509,0,0,0,4,0,0,horizontal,horizontal,vertical,horizontal,horizontal,horizontal
1c,18,100157,4,12,204,19,F,NA,variable,homogeneous,3,present,0.796049833297729,1,horizontal,horizontal,1,0.952930849248713,green,1,3,817.787900804752,854.378832816255,570.807518193712,488.215357568785,817.787900804752,854.378832816255,1011.40458100154,457.40580961496,570.807518193712,488.215357568785,0,0,0,0,0,0,4,0,0,NaN,NaN,NaN,horizontal,horizontal,horizontal,none,none,none
1c,18,100157,4,13,205,19,F,NA,variable,homogeneous,3,present,0.474525928497314,1,vertical,vertical,1,0.929402125965465,green,2,3,1020.83647796503,727.5,800,345,579.163522034968,727.5,1020.83647796503,727.5,800,345,0,0,0,0,0,0,0,4,0,NaN,NaN,NaN,vertical,vertical,vertical,none,none,none
1c,18,100157,4,14,206,19,F,NA,variable,homogeneous,4,absent,0.498382806777954,1,horizontal,horizontal,1,0.917637764323841,red,2,NaN,1034.72873763037,500.363562235235,NaN,NaN,899.636437764765,834.728737630372,1034.72873763037,500.363562235235,700.363562235235,365.271262369628,565.271262369628,699.636437764765,0,0,0,0,0,4,0,0,NaN,NaN,vertical,horizontal,horizontal,vertical,none,none
1c,18,100157,4,15,207,19,F,NA,variable,homogeneous,6,present,0.901892185211182,1,horizontal,horizontal,1,0.658821808208119,red,4,5,764.510859255183,347.4816424709,563.568117085469,504.475318678942,835.489140744817,852.518357529101,1036.43188291453,695.524681321058,1000.94274216971,443.006323791957,764.510859255183,347.4816424709,563.568117085469,504.475318678942,599.057257830286,756.993676208043,0,0,0,4,0,0,vertical,horizontal,horizontal,horizontal,vertical,horizontal
1c,18,100157,4,16,208,19,F,NA,variable,homogeneous,5,present,0.582842111587524,1,vertical,vertical,1,0.741172339699485,red,3,5,870.287525733335,354.878267535729,599.057257830286,756.993676208043,887.215136548046,839.621618300407,1054.84466088987,591.100628340862,870.287525733335,354.878267535729,588.595418998464,457.40580961496,599.057257830286,756.993676208043,0,0,0,0,4,0,0,NaN,horizontal,horizontal,vertical,horizontal,vertical,none
1c,18,100157,4,17,209,19,F,NA,variable,homogeneous,5,absent,0.501946926116943,1,vertical,vertical,1,0.964695210890336,red,4,NaN,619.68777079743,419.68777079743,NaN,NaN,839.890788585259,851.86052685176,1051.86052685176,639.890788585259,915.767577433584,372.793336331966,619.68777079743,419.68777079743,572.793336331966,715.767577433584,0,0,0,0,0,4,0,NaN,vertical,horizontal,vertical,vertical,horizontal,none
1c,18,100157,4,18,210,19,F,NA,variable,homogeneous,3,present,0.568804025650024,1,horizontal,horizontal,1,0.835287232832475,red,1,3,989.501930496736,770.628304621509,557.480588344736,678.799333565612,989.501930496736,770.628304621509,853.017481158529,350.57236181288,557.480588344736,678.799333565612,0,0,0,0,0,0,4,0,0,NaN,NaN,NaN,horizontal,horizontal,horizontal,none,none,none
1c,18,100157,4,19,211,19,F,NA,variable,homogeneous,5,present,1.12594509124756,1,vertical,vertical,1,0.88234467939897,green,1,3,764.510859255183,852.518357529101,977.137884467044,416.568350913644,764.510859255183,852.518357529101,1029.19248180629,711.784642431215,977.137884467044,416.568350913644,680.284751489598,374.848363820974,548.874022981887,644.280285305067,0,0,4,0,0,0,0,NaN,vertical,vertical,horizontal,horizontal,horizontal,none
1c,18,100157,4,20,212,19,F,NA,variable,homogeneous,4,present,0.643867015838623,1,horizontal,horizontal,1,0.952930849248713,green,3,4,899.636437764765,365.271262369628,565.271262369628,500.363562235235,700.363562235235,834.728737630372,1034.72873763037,699.636437764765,899.636437764765,365.271262369628,565.271262369628,500.363562235235,0,0,0,0,0,0,4,0,NaN,NaN,vertical,horizontal,horizontal,horizontal,none,none
1c,18,100157,4,21,213,19,F,NA,variable,homogeneous,6,absent,0.791604042053223,0,vertical,horizontal,1,0.741172339699485,green,1,NaN,907.767656743878,831.108485694346,NaN,NaN,907.767656743878,831.108485694346,1054.0296480134,622.224714400653,946.261991269517,391.116228706307,692.232343256122,368.891514305654,545.970351986605,577.775285599347,653.738008730483,808.883771293693,4,0,0,0,0,0,vertical,horizontal,vertical,horizontal,vertical,vertical
1c,18,100157,4,22,214,19,F,NA,variable,homogeneous,6,present,0.869536876678467,1,vertical,vertical,1,0.88234467939897,green,3,1,1027.20666366803,484.232422566416,786.654331158049,854.650531362416,786.654331158049,854.650531362416,1013.86099482608,738.882953928832,1027.20666366803,484.232422566416,813.345668841951,345.349468637584,586.139005173917,461.117046071168,572.793336331966,715.767577433584,0,0,4,0,0,0,horizontal,vertical,vertical,vertical,horizontal,horizontal
1c,18,100157,4,23,215,19,F,NA,variable,homogeneous,4,absent,1.14365100860596,1,horizontal,horizontal,1,1.03528138074008,green,2,NaN,1031.10848569435,492.232343256122,NaN,NaN,907.767656743878,831.108485694346,1031.10848569435,492.232343256122,692.232343256122,368.891514305654,568.891514305654,707.767656743878,0,0,0,0,0,4,0,0,NaN,NaN,vertical,horizontal,vertical,horizontal,none,none
1c,18,100157,4,24,216,19,F,NA,variable,homogeneous,5,absent,0.720411062240601,1,horizontal,horizontal,1,1.0941031889482,red,4,NaN,581.422338320961,468.665290897936,NaN,NaN,899.636437764765,834.728737630372,1054.0296480134,577.775285599347,857.362518857686,351.535633479765,581.422338320961,468.665290897936,607.549057043193,767.295052392579,0,0,0,0,0,4,0,NaN,horizontal,vertical,horizontal,horizontal,horizontal,none
1c,18,100157,4,25,217,19,F,NA,variable,homogeneous,4,present,0.700879096984863,1,horizontal,horizontal,1,0.682350531491366,green,2,1,1006.29933356561,450.114760665419,949.885239334581,806.299333565612,949.885239334581,806.299333565612,1006.29933356561,450.114760665419,650.114760665419,393.700666434388,593.700666434388,749.885239334581,0,0,0,0,0,4,0,0,NaN,NaN,horizontal,horizontal,vertical,vertical,none,none
1c,18,100157,4,26,218,19,F,NA,variable,homogeneous,5,present,0.554001808166504,1,horizontal,horizontal,1,0.752936701341109,green,1,2,773.345241866748,853.60308331891,1032.95409169886,703.717843984329,773.345241866748,853.60308331891,1032.95409169886,703.717843984329,970.628304621509,410.498069503264,672.5,379.163522034968,550.57236181288,653.017481158529,0,0,4,0,0,0,0,NaN,horizontal,horizontal,vertical,horizontal,vertical,none
1c,18,100157,4,27,219,19,F,NA,variable,homogeneous,5,present,0.717520952224731,1,horizontal,horizontal,1,0.999988295815208,red,2,5,1039.62161830041,687.215136548046,554.878267535729,670.287525733335,791.100628340862,854.844660889869,1039.62161830041,687.215136548046,956.993676208043,399.057257830286,657.405809614959,388.595418998464,554.878267535729,670.287525733335,0,0,0,4,0,0,0,NaN,horizontal,horizontal,vertical,vertical,vertical,none
1c,18,100157,4,28,220,19,F,NA,variable,homogeneous,6,present,0.534077167510986,1,horizontal,horizontal,1,0.894109041040594,green,5,1,599.057257830286,443.006323791957,764.510859255183,852.518357529101,764.510859255183,852.518357529101,1000.94274216971,756.993676208043,1036.43188291453,504.475318678942,835.489140744817,347.4816424709,599.057257830286,443.006323791957,563.568117085469,695.524681321058,0,0,0,0,4,0,horizontal,vertical,vertical,vertical,horizontal,horizontal
1c,18,100157,4,29,221,19,F,NA,variable,homogeneous,4,present,0.886956214904785,1,vertical,vertical,1,0.705879254774614,green,4,3,619.68777079743,780.31222920257,619.68777079743,419.68777079743,980.31222920257,780.31222920257,980.31222920257,419.68777079743,619.68777079743,419.68777079743,619.68777079743,780.31222920257,0,0,0,0,0,0,0,4,NaN,NaN,horizontal,vertical,vertical,vertical,none,none
1c,18,100157,4,30,222,19,F,NA,variable,homogeneous,4,absent,0.593913078308105,1,vertical,vertical,1,0.647057446566495,red,2,NaN,1018.57766167904,731.334709102064,NaN,NaN,668.665290897936,818.577661679039,1018.57766167904,731.334709102064,931.334709102064,381.422338320961,581.422338320961,468.665290897936,0,0,0,0,0,4,0,0,NaN,NaN,vertical,vertical,horizontal,vertical,none,none
1c,18,100157,4,31,223,19,F,NA,variable,homogeneous,3,absent,0.535263061523438,1,vertical,vertical,1,1.05881010402333,red,2,NaN,1053.60308331891,626.654758133252,NaN,NaN,650.114760665419,806.299333565612,1053.60308331891,626.654758133252,696.282156015671,367.045908301137,0,0,0,0,0,0,0,4,0,NaN,NaN,NaN,horizontal,vertical,vertical,none,none,none
1c,18,100157,4,32,224,19,F,NA,variable,homogeneous,5,absent,0.603239059448242,1,horizontal,horizontal,1,0.670586169849743,green,5,NaN,545.155339110131,591.100628340862,NaN,NaN,712.784863451954,839.621618300407,1000.94274216971,756.993676208043,1011.40458100154,457.40580961496,729.712474266665,354.878267535729,545.155339110131,591.100628340862,0,0,0,0,0,0,4,NaN,vertical,horizontal,horizontal,horizontal,horizontal,none
1c,18,100157,4,33,225,19,F,NA,variable,homogeneous,6,present,0.620278120040894,1,horizontal,horizontal,1,0.635293084924871,green,4,1,692.232343256122,368.891514305654,907.767656743878,831.108485694346,907.767656743878,831.108485694346,1054.0296480134,622.224714400653,946.261991269517,391.116228706307,692.232343256122,368.891514305654,545.970351986605,577.775285599347,653.738008730483,808.883771293693,0,0,0,4,0,0,horizontal,horizontal,horizontal,horizontal,vertical,horizontal
1c,18,100157,4,34,226,19,F,NA,variable,homogeneous,3,present,0.741624116897583,1,horizontal,horizontal,1,1.0470457423817,red,1,3,927.5,820.836477965032,545,600,927.5,820.836477965032,927.5,379.163522034968,545,600,0,0,0,0,0,0,4,0,0,NaN,NaN,NaN,horizontal,horizontal,horizontal,none,none,none
1c,18,100157,4,35,227,19,F,NA,variable,homogeneous,3,present,0.587338924407959,1,vertical,vertical,1,0.729407978057861,red,3,1,755.719714694933,348.874022981887,604.658667004661,763.910840470068,604.658667004661,763.910840470068,1039.62161830041,687.215136548046,755.719714694933,348.874022981887,0,0,0,0,0,0,0,0,4,NaN,NaN,NaN,horizontal,horizontal,vertical,none,none,none
1c,18,100157,4,36,228,19,F,NA,variable,homogeneous,3,absent,0.676342010498047,1,horizontal,horizontal,1,0.847051594474099,red,2,NaN,1054.0296480134,577.775285599347,NaN,NaN,692.232343256122,831.108485694346,1054.0296480134,577.775285599347,653.738008730483,391.116228706307,0,0,0,0,0,0,0,4,0,NaN,NaN,NaN,horizontal,horizontal,vertical,none,none,none
1c,18,100157,4,37,229,19,F,NA,variable,homogeneous,6,present,0.606276988983154,1,horizontal,horizontal,1,0.811758509549228,red,2,1,973.909581815937,786.495193912888,725.445215295702,843.857712770574,725.445215295702,843.857712770574,973.909581815937,786.495193912888,1048.46436652023,542.637481142314,874.554784704298,356.142287229426,626.090418184063,413.504806087112,551.535633479765,657.362518857686,0,4,0,0,0,0,vertical,horizontal,horizontal,vertical,horizontal,vertical
1c,18,100157,4,38,230,19,F,NA,variable,homogeneous,4,present,0.519537925720215,1,horizontal,horizontal,1,0.658821808208119,red,1,4,817.787900804752,854.378832816255,545.621167183745,617.787900804752,817.787900804752,854.378832816255,1054.37883281626,582.212099195248,782.212099195248,345.621167183745,545.621167183745,617.787900804752,0,0,0,0,4,0,0,0,NaN,NaN,horizontal,vertical,vertical,horizontal,none,none
1c,18,100157,4,39,231,19,F,NA,variable,homogeneous,4,present,0.53667688369751,1,horizontal,horizontal,1,0.717643616416238,red,2,1,1051.12597701811,644.280285305067,755.719714694933,851.125977018113,755.719714694933,851.125977018113,1051.12597701811,644.280285305067,844.280285305067,348.874022981887,548.874022981887,555.719714694933,0,0,0,0,0,4,0,0,NaN,NaN,vertical,horizontal,vertical,vertical,none,none
1c,18,100157,4,40,232,19,F,NA,variable,homogeneous,5,absent,0.603929996490479,1,vertical,vertical,1,0.623528723283247,green,4,NaN,570.807518193712,488.215357568785,NaN,NaN,919.715248510402,825.151636179026,1051.12597701811,555.719714694933,835.489140744817,347.4816424709,570.807518193712,488.215357568785,622.862115532956,783.431649086356,0,0,0,0,0,4,0,NaN,horizontal,horizontal,vertical,vertical,vertical,none
1c,18,100157,4,41,233,19,F,NA,variable,homogeneous,6,absent,0.720380067825317,1,vertical,vertical,1,0.999988295815208,red,1,NaN,700.363562235235,834.728737630372,NaN,NaN,700.363562235235,834.728737630372,953.462830903772,803.65205506206,1053.09926866854,568.923317431687,899.636437764765,365.271262369628,646.537169096228,396.34794493794,546.900731331463,631.076682568313,4,0,0,0,0,0,vertical,vertical,vertical,vertical,horizontal,vertical
1c,18,100157,4,42,234,19,F,NA,variable,homogeneous,6,present,0.559255123138428,1,vertical,vertical,1,0.823522871190851,red,1,5,800,855,579.163522034968,472.5,800,855,1020.83647796503,727.5,1020.83647796503,472.5,800,345,579.163522034968,472.5,579.163522034968,727.5,4,0,0,0,0,0,vertical,vertical,horizontal,vertical,vertical,vertical
1c,18,100157,4,43,235,19,F,NA,variable,homogeneous,3,absent,0.599826097488403,1,vertical,vertical,1,0.658821808208119,green,3,NaN,639.523300282292,401.827779828472,NaN,NaN,708.616172865948,838.063008756786,1051.86052685176,560.109211414741,639.523300282292,401.827779828472,0,0,0,0,0,0,0,0,4,NaN,NaN,NaN,vertical,vertical,vertical,none,none,none
1c,18,100157,4,44,236,19,F,NA,variable,homogeneous,3,present,0.624358892440796,1,horizontal,horizontal,1,0.611764361641624,green,2,3,899.636437764765,365.271262369628,546.900731331463,631.076682568313,953.462830903772,803.65205506206,899.636437764765,365.271262369628,546.900731331463,631.076682568313,0,0,0,0,0,0,0,4,0,NaN,NaN,NaN,horizontal,horizontal,horizontal,none,none,none
1c,18,100157,4,45,237,19,F,NA,variable,homogeneous,5,absent,1.06665110588074,1,vertical,vertical,1,0.682350531491366,red,5,NaN,547.481642470899,564.510859255183,NaN,NaN,688.215357568785,829.192481806288,983.431649086356,777.137884467044,1025.15163617903,480.284751489598,755.719714694933,348.874022981887,547.481642470899,564.510859255183,0,0,0,0,0,0,4,NaN,vertical,vertical,horizontal,vertical,vertical,none
1c,18,100157,4,46,238,19,F,NA,variable,homogeneous,3,absent,0.771253108978271,1,horizontal,horizontal,1,0.952930849248713,green,3,NaN,556.142287229426,525.445215295702,NaN,NaN,857.362518857686,848.464366520235,986.495193912888,426.090418184063,556.142287229426,525.445215295702,0,0,0,0,0,0,0,0,4,NaN,NaN,NaN,vertical,horizontal,horizontal,none,none,none
1c,18,100157,4,47,239,19,F,NA,variable,homogeneous,3,absent,0.751564979553223,1,horizontal,horizontal,1,0.635293084924871,red,3,NaN,622.862115532956,416.568350913644,NaN,NaN,729.712474266665,845.121732464271,1047.42541020038,538.309916622085,622.862115532956,416.568350913644,0,0,0,0,0,0,0,0,4,NaN,NaN,NaN,vertical,horizontal,horizontal,none,none,none
1c,18,100157,4,48,240,19,F,NA,variable,homogeneous,3,absent,0.45407509803772,1,horizontal,horizontal,1,0.764701062982733,green,2,NaN,923.626453162816,376.971974679454,NaN,NaN,931.334709102064,818.577661679039,923.626453162816,376.971974679454,545.03883773512,604.450363641507,0,0,0,0,0,0,0,4,0,NaN,NaN,NaN,horizontal,horizontal,horizontal,none,none,none
1c,18,100157,4,49,241,19,F,NA,variable,homogeneous,4,present,0.620266914367676,1,vertical,vertical,1,0.847051594474099,red,3,2,751.343706178981,349.685068220846,1050.31493177915,551.343706178981,848.656293821019,850.314931779154,1050.31493177915,551.343706178981,751.343706178981,349.685068220846,549.685068220846,648.656293821019,0,0,0,0,0,0,4,0,NaN,NaN,vertical,vertical,vertical,vertical,none,none
1c,18,100157,4,50,242,19,F,NA,variable,homogeneous,6,absent,0.794542074203491,1,horizontal,horizontal,1,0.88234467939897,red,3,NaN,1053.09926866854,568.923317431687,NaN,NaN,700.363562235235,834.728737630372,953.462830903772,803.65205506206,1053.09926866854,568.923317431687,899.636437764765,365.271262369628,646.537169096228,396.34794493794,546.900731331463,631.076682568313,0,0,4,0,0,0,horizontal,horizontal,horizontal,vertical,horizontal,vertical
1c,18,100157,4,51,243,19,F,NA,variable,homogeneous,4,absent,0.594928026199341,1,vertical,vertical,1,0.823522871190851,green,3,NaN,853.017481158529,350.57236181288,NaN,NaN,746.982518841471,849.42763818712,1049.42763818712,653.017481158529,853.017481158529,350.57236181288,550.57236181288,546.982518841471,0,0,0,0,0,0,4,0,NaN,NaN,horizontal,horizontal,vertical,horizontal,none,none
1c,18,100157,4,52,244,19,F,NA,variable,homogeneous,3,absent,0.833997964859009,1,vertical,vertical,1,0.952930849248713,red,2,NaN,1054.37883281626,582.212099195248,NaN,NaN,688.215357568785,829.192481806288,1054.37883281626,582.212099195248,657.405809614959,388.595418998464,0,0,0,0,0,0,0,4,0,NaN,NaN,NaN,horizontal,vertical,vertical,none,none,none
1c,18,100157,4,53,245,19,F,NA,variable,homogeneous,5,absent,0.53200101852417,1,horizontal,horizontal,1,0.847051594474099,red,3,NaN,865.998856501143,353.688914296288,NaN,NaN,891.383827134052,838.063008756786,1054.65053136242,586.654331158049,865.998856501143,353.688914296288,586.139005173917,461.117046071168,601.827779828472,760.476699717708,0,0,0,0,4,0,0,NaN,vertical,horizontal,horizontal,vertical,vertical,none
1c,18,100157,4,54,246,19,F,NA,variable,homogeneous,5,present,1.03088903427124,1,vertical,vertical,1,0.799994147907604,green,2,5,973.909581815937,786.495193912888,549.685068220846,551.343706178981,676.373546837184,823.028025320546,973.909581815937,786.495193912888,1031.10848569435,492.232343256122,768.923317431687,346.900731331463,549.685068220846,551.343706178981,0,0,0,4,0,0,0,NaN,horizontal,vertical,horizontal,vertical,horizontal,none
