experiment,subject,uniqueID,block,trial,trial_cumulative,age,gender,color_cond_blocking,color_history,shape_type,set_size,distractor,rt,acc,target_orient,response_key,response_made,iti,target_color,target_item,distractor_item,target_X,target_Y,distractor_X,distractor_Y,item1_X,item1_Y,item2_X,item2_Y,item3_X,item3_Y,item4_X,item4_Y,item5_X,item5_Y,item6_X,item6_Y,item1_shape,item2_shape,item3_shape,item4_shape,item5_shape,item6_shape,item1_line,item2_line,item3_line,item4_line,item5_line,item6_line
1c,19,100159,1,1,1,21,M,NA,variable,homogeneous,5,absent,0.936216115951538,1,vertical,vertical,1,0.623530006408691,green,4,NaN,558.892763222174,516.980120613425,NaN,NaN,946.261991269517,808.883771293693,1043.85771277057,525.445215295702,804.450363641507,345.03883773512,558.892763222174,516.980120613425,646.537169096228,803.65205506206,0,0,0,0,0,4,0,NaN,vertical,horizontal,horizontal,vertical,vertical,none
1c,19,100159,1,2,2,21,M,NA,variable,homogeneous,6,present,0.797357082366943,1,horizontal,horizontal,1,0.941185092926025,green,2,6,1053.60308331891,626.654758133252,650.114760665419,806.299333565612,903.717843984329,832.954091698863,1053.60308331891,626.654758133252,949.885239334581,393.700666434388,696.282156015671,367.045908301137,546.39691668109,573.345241866748,650.114760665419,806.299333565612,0,4,0,0,0,0,vertical,horizontal,horizontal,horizontal,horizontal,horizontal
1c,19,100159,1,3,3,21,M,NA,variable,homogeneous,5,absent,0.610260963439941,1,horizontal,horizontal,1,1.03530511856079,green,4,NaN,565.271262369628,500.363562235235,NaN,NaN,931.334709102064,818.577661679039,1048.46436652023,542.637481142314,822.224714400653,345.970351986605,565.271262369628,500.363562235235,632.704947607421,792.450942956807,0,0,0,0,0,4,0,NaN,vertical,horizontal,vertical,horizontal,vertical,none
1c,19,100159,1,4,4,21,M,NA,variable,homogeneous,3,absent,0.768551111221313,1,vertical,vertical,1,0.894125080108643,green,2,NaN,953.462830903772,396.34794493794,NaN,NaN,899.636437764765,834.728737630372,953.462830903772,396.34794493794,546.900731331463,568.923317431687,0,0,0,0,0,0,0,4,0,NaN,NaN,NaN,horizontal,vertical,horizontal,none,none,none
1c,19,100159,1,5,5,21,M,NA,variable,homogeneous,5,present,0.903037071228027,1,horizontal,horizontal,1,0.752945041656494,red,4,3,777.775285599347,345.970351986605,1034.72873763037,500.363562235235,668.665290897936,818.577661679039,967.295052392579,792.450942956807,1034.72873763037,500.363562235235,777.775285599347,345.970351986605,551.535633479765,542.637481142314,0,0,0,0,0,4,0,NaN,horizontal,vertical,vertical,horizontal,horizontal,none
1c,19,100159,1,6,6,21,M,NA,variable,homogeneous,5,present,1.05600214004517,1,horizontal,horizontal,1,0.941185092926025,green,1,2,891.383827134052,838.063008756786,1054.65053136242,586.654331158049,891.383827134052,838.063008756786,1054.65053136242,586.654331158049,865.998856501143,353.688914296288,586.139005173917,461.117046071168,601.827779828472,760.476699717708,0,0,4,0,0,0,0,NaN,horizontal,vertical,horizontal,vertical,horizontal,none
1c,19,100159,1,7,7,21,M,NA,variable,homogeneous,6,present,0.667423963546753,1,vertical,vertical,1,0.705885028839111,green,5,6,607.549057043193,432.704947607421,558.892763222174,683.019879386575,751.343706178981,850.314931779154,992.450942956807,767.295052392579,1041.10723677783,516.980120613425,848.656293821019,349.685068220846,607.549057043193,432.704947607421,558.892763222174,683.019879386575,0,0,0,0,4,0,horizontal,horizontal,vertical,vertical,vertical,vertical
1c,19,100159,1,8,8,21,M,NA,variable,homogeneous,3,absent,0.650918960571289,1,vertical,vertical,1,0.705885028839111,red,1,NaN,813.345668841951,854.650531362416,NaN,NaN,813.345668841951,854.650531362416,1013.86099482608,461.117046071168,572.793336331966,484.232422566416,0,0,0,0,0,0,4,0,0,NaN,NaN,NaN,vertical,horizontal,vertical,none,none,none
1c,19,100159,1,9,9,21,M,NA,variable,homogeneous,6,present,0.809434175491333,1,vertical,vertical,1,0.670590019226074,green,4,3,704.475318678942,363.568117085469,956.993676208043,399.057257830286,895.524681321058,836.431882914531,1052.5183575291,635.489140744817,956.993676208043,399.057257830286,704.475318678942,363.568117085469,547.481642470899,564.510859255183,643.006323791957,800.942742169714,0,0,0,4,0,0,horizontal,horizontal,vertical,vertical,vertical,vertical
1c,19,100159,1,10,10,21,M,NA,variable,homogeneous,5,present,0.629270076751709,1,horizontal,horizontal,1,0.776475048065186,green,2,5,1032.95409169886,703.717843984329,550.57236181288,653.017481158529,773.345241866748,853.60308331891,1032.95409169886,703.717843984329,970.628304621509,410.498069503264,672.5,379.163522034968,550.57236181288,653.017481158529,0,0,0,4,0,0,0,NaN,horizontal,horizontal,vertical,vertical,vertical,none
1c,19,100159,1,11,11,21,M,NA,variable,homogeneous,4,absent,0.710680961608887,1,vertical,vertical,1,0.835300064086914,green,3,NaN,653.738008730483,391.116228706307,NaN,NaN,946.261991269517,808.883771293693,1008.88377129369,453.738008730483,653.738008730483,391.116228706307,591.116228706307,746.261991269517,0,0,0,0,0,0,4,0,NaN,NaN,horizontal,vertical,vertical,horizontal,none,none
1c,19,100159,1,12,12,21,M,NA,variable,homogeneous,5,absent,0.684009075164795,1,vertical,vertical,1,0.941185092926025,red,2,NaN,1053.60308331891,573.345241866748,NaN,NaN,903.717843984329,832.954091698863,1053.60308331891,573.345241866748,853.017481158529,350.57236181288,579.163522034968,472.5,610.498069503264,770.628304621509,0,0,0,4,0,0,0,NaN,vertical,vertical,vertical,horizontal,vertical,none
1c,19,100159,1,13,13,21,M,NA,variable,homogeneous,4,present,1.39314889907837,1,vertical,vertical,1,0.964715099334717,red,3,4,716.980120613425,358.892763222174,558.892763222174,683.019879386575,883.019879386575,841.107236777826,1041.10723677783,516.980120613425,716.980120613425,358.892763222174,558.892763222174,683.019879386575,0,0,0,0,0,0,4,0,NaN,NaN,horizontal,horizontal,vertical,vertical,none,none
1c,19,100159,1,14,14,21,M,NA,variable,homogeneous,4,present,0.884982109069824,1,vertical,vertical,1,1.0117751121521,green,3,4,782.212099195248,345.621167183745,545.621167183745,617.787900804752,817.787900804752,854.378832816255,1054.37883281626,582.212099195248,782.212099195248,345.621167183745,545.621167183745,617.787900804752,0,0,0,0,0,0,4,0,NaN,NaN,vertical,horizontal,vertical,horizontal,none,none
1c,19,100159,1,15,15,21,M,NA,variable,homogeneous,6,absent,0.695919990539551,1,horizontal,horizontal,1,1.02354011535645,green,6,NaN,560.378381699593,687.215136548046,NaN,NaN,755.719714694933,851.125977018113,995.341332995339,763.910840470068,1039.62161830041,512.784863451954,844.280285305067,348.874022981887,604.658667004661,436.089159529932,560.378381699593,687.215136548046,0,0,0,0,0,4,horizontal,horizontal,horizontal,vertical,vertical,horizontal
1c,19,100159,1,16,16,21,M,NA,variable,homogeneous,3,present,0.639277935028076,1,vertical,vertical,1,0.870595073699951,red,1,3,935.129412379467,816.252264519889,545.155339110131,608.899371659138,935.129412379467,816.252264519889,919.715248510402,374.848363820974,545.155339110131,608.899371659138,0,0,0,0,0,0,4,0,0,NaN,NaN,NaN,vertical,horizontal,horizontal,none,none,none
1c,19,100159,1,17,17,21,M,NA,variable,homogeneous,5,present,0.887343883514404,1,vertical,vertical,1,0.752945041656494,green,5,1,552.574589799621,538.309916622085,664.870587620533,816.252264519889,664.870587620533,816.252264519889,963.910840470068,795.341332995339,1036.43188291453,504.475318678942,782.212099195248,345.621167183745,552.574589799621,538.309916622085,0,0,0,0,0,0,4,NaN,horizontal,vertical,horizontal,horizontal,vertical,none
1c,19,100159,1,18,18,21,M,NA,variable,homogeneous,5,present,0.545117855072021,1,vertical,vertical,1,0.6,green,2,5,1054.37883281626,582.212099195248,604.658667004661,763.910840470068,895.524681321058,836.431882914531,1054.37883281626,582.212099195248,861.690083377915,352.574589799621,583.747735480111,464.870587620533,604.658667004661,763.910840470068,0,0,0,4,0,0,0,NaN,horizontal,vertical,horizontal,vertical,horizontal,none
1c,19,100159,1,19,19,21,M,NA,variable,homogeneous,4,absent,0.578680038452148,1,horizontal,horizontal,1,0.917655086517334,red,1,NaN,734.001143498857,846.311085703712,NaN,NaN,734.001143498857,846.311085703712,1046.31108570371,665.998856501143,865.998856501143,353.688914296288,553.688914296288,534.001143498857,0,0,0,0,4,0,0,0,NaN,NaN,horizontal,horizontal,vertical,vertical,none,none
1c,19,100159,1,20,20,21,M,NA,variable,homogeneous,4,present,0.839375019073486,1,horizontal,horizontal,1,0.84706506729126,green,4,2,551.535633479765,657.362518857686,1048.46436652023,542.637481142314,857.362518857686,848.464366520235,1048.46436652023,542.637481142314,742.637481142314,351.535633479765,551.535633479765,657.362518857686,0,0,0,0,0,0,0,4,NaN,NaN,horizontal,vertical,vertical,horizontal,none,none
1c,19,100159,1,21,21,21,M,NA,variable,homogeneous,5,absent,0.604122877120972,1,horizontal,horizontal,1,0.988245105743408,red,3,NaN,919.715248510402,374.848363820974,NaN,NaN,835.489140744817,852.518357529101,1051.12597701811,644.280285305067,919.715248510402,374.848363820974,622.862115532956,416.568350913644,570.807518193712,711.784642431215,0,0,0,0,4,0,0,NaN,horizontal,horizontal,horizontal,horizontal,vertical,none
1c,19,100159,1,22,22,21,M,NA,variable,homogeneous,4,absent,0.621954202651978,1,vertical,vertical,1,1.08236513137817,green,3,NaN,653.738008730483,391.116228706307,NaN,NaN,946.261991269517,808.883771293693,1008.88377129369,453.738008730483,653.738008730483,391.116228706307,591.116228706307,746.261991269517,0,0,0,0,0,0,4,0,NaN,NaN,vertical,vertical,vertical,vertical,none,none
1c,19,100159,1,23,23,21,M,NA,variable,homogeneous,6,present,0.658804893493652,1,horizontal,horizontal,1,0.800005054473877,red,2,1,995.341332995339,763.910840470068,755.719714694933,851.125977018113,755.719714694933,851.125977018113,995.341332995339,763.910840470068,1039.62161830041,512.784863451954,844.280285305067,348.874022981887,604.658667004661,436.089159529932,560.378381699593,687.215136548046,0,4,0,0,0,0,horizontal,horizontal,horizontal,horizontal,horizontal,horizontal
1c,19,100159,1,24,24,21,M,NA,variable,homogeneous,4,present,1.03386282920837,1,horizontal,horizontal,1,0.68235502243042,green,2,1,1053.09926866854,631.076682568313,768.923317431687,853.099268668537,768.923317431687,853.099268668537,1053.09926866854,631.076682568313,831.076682568313,346.900731331463,546.900731331463,568.923317431687,0,0,0,0,0,4,0,0,NaN,NaN,horizontal,horizontal,vertical,horizontal,none,none
1c,19,100159,1,25,25,21,M,NA,variable,homogeneous,6,present,1.07626795768738,1,horizontal,horizontal,1,0.670590019226074,green,6,1,579.163522034968,727.5,800,855,800,855,1020.83647796503,727.5,1020.83647796503,472.5,800,345,579.163522034968,472.5,579.163522034968,727.5,0,0,0,0,0,4,horizontal,vertical,horizontal,vertical,vertical,horizontal
1c,19,100159,1,26,26,21,M,NA,variable,homogeneous,4,absent,0.664963006973267,1,horizontal,horizontal,1,0.752945041656494,red,1,NaN,629.371695378491,789.501930496736,NaN,NaN,629.371695378491,789.501930496736,989.501930496736,770.628304621509,970.628304621509,410.498069503264,610.498069503264,429.371695378491,0,0,0,0,4,0,0,0,NaN,NaN,horizontal,horizontal,horizontal,vertical,none,none
1c,19,100159,1,27,27,21,M,NA,variable,homogeneous,4,absent,0.733759880065918,1,vertical,vertical,1,0.76471004486084,red,2,NaN,1041.10723677783,516.980120613425,NaN,NaN,883.019879386575,841.107236777826,1041.10723677783,516.980120613425,716.980120613425,358.892763222174,558.892763222174,683.019879386575,0,0,0,0,0,4,0,0,NaN,NaN,horizontal,vertical,vertical,vertical,none,none
1c,19,100159,1,28,28,21,M,NA,variable,homogeneous,5,present,0.95401406288147,1,horizontal,horizontal,1,0.670590019226074,red,2,1,1052.5183575291,564.510859255183,911.784642431215,829.192481806288,911.784642431215,829.192481806288,1052.5183575291,564.510859255183,844.280285305067,348.874022981887,574.848363820974,480.284751489598,616.568350913644,777.137884467044,0,0,0,4,0,0,0,NaN,horizontal,horizontal,vertical,vertical,horizontal,none
1c,19,100159,1,29,29,21,M,NA,variable,homogeneous,3,present,0.695627212524414,1,horizontal,horizontal,1,0.717650032043457,green,2,1,831.076682568313,346.900731331463,1003.65205506206,753.462830903772,1003.65205506206,753.462830903772,831.076682568313,346.900731331463,565.271262369628,699.636437764765,0,0,0,0,0,0,0,4,0,NaN,NaN,NaN,vertical,horizontal,horizontal,none,none,none
1c,19,100159,1,30,30,21,M,NA,variable,homogeneous,4,present,0.690699100494385,1,horizontal,horizontal,1,1.05883512496948,red,4,3,549.685068220846,551.343706178981,848.656293821019,349.685068220846,751.343706178981,850.314931779154,1050.31493177915,648.656293821019,848.656293821019,349.685068220846,549.685068220846,551.343706178981,0,0,0,0,0,0,0,4,NaN,NaN,horizontal,vertical,vertical,horizontal,none,none
1c,19,100159,1,31,31,21,M,NA,variable,homogeneous,5,absent,0.603605985641479,1,vertical,vertical,1,0.92942008972168,green,2,NaN,1054.96116226488,604.450363641507,NaN,NaN,874.554784704298,843.857712770574,1054.96116226488,604.450363641507,883.019879386575,358.892763222174,596.34794493794,446.537169096228,591.116228706307,746.261991269517,0,0,0,4,0,0,0,NaN,horizontal,vertical,horizontal,vertical,horizontal,none
1c,19,100159,1,32,32,21,M,NA,variable,homogeneous,4,present,0.525186061859131,1,vertical,vertical,1,1.08236513137817,green,2,3,1029.19248180629,488.215357568785,688.215357568785,370.807518193712,911.784642431215,829.192481806288,1029.19248180629,488.215357568785,688.215357568785,370.807518193712,570.807518193712,711.784642431215,0,0,0,0,0,4,0,0,NaN,NaN,vertical,vertical,horizontal,horizontal,none,none
1c,19,100159,1,33,33,21,M,NA,variable,homogeneous,6,absent,0.601193189620972,1,vertical,vertical,1,1.05883512496948,green,5,NaN,576.971974679454,476.373546837184,NaN,NaN,804.450363641507,854.96116226488,1023.02802532055,723.626453162816,1018.57766167904,468.665290897936,795.549636358493,345.03883773512,576.971974679454,476.373546837184,581.422338320961,731.334709102064,0,0,0,0,4,0,vertical,horizontal,horizontal,horizontal,vertical,horizontal
1c,19,100159,1,34,34,21,M,NA,variable,homogeneous,6,present,0.86323094367981,1,vertical,vertical,1,0.694120025634766,red,1,2,721.200666434388,842.519411655264,970.628304621509,789.501930496736,721.200666434388,842.519411655264,970.628304621509,789.501930496736,1049.42763818712,546.982518841471,878.799333565612,357.480588344736,629.371695378491,410.498069503264,550.57236181288,653.017481158529,4,0,0,0,0,0,vertical,vertical,horizontal,horizontal,horizontal,vertical
1c,19,100159,1,35,35,21,M,NA,variable,homogeneous,4,absent,0.580519199371338,1,vertical,vertical,1,0.788240051269531,red,2,NaN,1054.96116226488,595.549636358493,NaN,NaN,804.450363641507,854.96116226488,1054.96116226488,595.549636358493,795.549636358493,345.03883773512,545.03883773512,604.450363641507,0,0,0,0,0,4,0,0,NaN,NaN,vertical,vertical,vertical,vertical,none,none
1c,19,100159,1,36,36,21,M,NA,variable,homogeneous,4,present,0.609598875045776,1,horizontal,horizontal,1,0.870595073699951,red,3,1,704.475318678942,363.568117085469,895.524681321058,836.431882914531,895.524681321058,836.431882914531,1036.43188291453,504.475318678942,704.475318678942,363.568117085469,563.568117085469,695.524681321058,0,0,0,0,0,0,4,0,NaN,NaN,vertical,vertical,horizontal,horizontal,none,none
1c,19,100159,1,37,37,21,M,NA,variable,homogeneous,6,present,0.829905986785889,1,vertical,vertical,1,0.800005054473877,red,2,6,1038.06300875679,691.383827134052,601.827779828472,760.476699717708,839.890788585259,851.86052685176,1038.06300875679,691.383827134052,998.172220171528,439.523300282291,760.109211414741,348.13947314824,561.936991243214,508.616172865948,601.827779828472,760.476699717708,0,4,0,0,0,0,horizontal,vertical,vertical,vertical,horizontal,vertical
1c,19,100159,1,38,38,21,M,NA,variable,homogeneous,6,absent,0.615853071212769,1,vertical,vertical,1,0.658825016021728,red,5,NaN,549.685068220846,551.343706178981,NaN,NaN,883.019879386575,841.107236777826,1050.31493177915,648.656293821019,967.295052392579,407.549057043193,716.980120613425,358.892763222174,549.685068220846,551.343706178981,632.704947607421,792.450942956807,0,0,0,0,4,0,horizontal,horizontal,horizontal,vertical,vertical,vertical
1c,19,100159,1,39,39,21,M,NA,variable,homogeneous,6,absent,0.6091468334198,1,horizontal,horizontal,1,0.647060012817383,green,3,NaN,1032.95409169886,496.282156015671,NaN,NaN,773.345241866748,853.60308331891,1006.29933356561,749.885239334581,1032.95409169886,496.282156015671,826.654758133252,346.39691668109,593.700666434388,450.114760665419,567.045908301137,703.717843984329,0,0,4,0,0,0,vertical,horizontal,horizontal,vertical,horizontal,vertical
1c,19,100159,1,40,40,21,M,NA,variable,homogeneous,3,absent,0.591005086898804,1,horizontal,horizontal,1,1.07060012817383,green,1,NaN,626.090418184063,786.495193912888,NaN,NaN,626.090418184063,786.495193912888,1048.46436652023,657.362518857686,725.445215295702,356.142287229426,0,0,0,0,0,0,4,0,0,NaN,NaN,NaN,horizontal,vertical,horizontal,none,none,none
1c,19,100159,1,41,41,21,M,NA,variable,homogeneous,3,present,1.01728987693787,1,horizontal,horizontal,1,0.717650032043457,red,1,2,911.784642431215,829.192481806288,942.594190385041,388.595418998464,911.784642431215,829.192481806288,942.594190385041,388.595418998464,545.621167183745,582.212099195248,0,0,0,0,0,0,4,0,0,NaN,NaN,NaN,horizontal,horizontal,vertical,none,none,none
1c,19,100159,1,42,42,21,M,NA,variable,homogeneous,3,present,0.701982021331787,1,vertical,vertical,1,0.811770057678223,red,1,3,688.215357568785,829.192481806288,657.405809614959,388.595418998464,688.215357568785,829.192481806288,1054.37883281626,582.212099195248,657.405809614959,388.595418998464,0,0,0,0,0,0,4,0,0,NaN,NaN,NaN,vertical,vertical,horizontal,none,none,none
1c,19,100159,1,43,43,21,M,NA,variable,homogeneous,5,absent,0.608496904373169,1,vertical,vertical,1,1.03530511856079,red,5,NaN,548.13947314824,639.890788585259,NaN,NaN,760.109211414741,851.86052685176,1027.20666366803,715.767577433584,980.31222920257,419.68777079743,684.232422566416,372.793336331966,548.13947314824,639.890788585259,0,0,0,0,0,0,4,NaN,horizontal,horizontal,horizontal,horizontal,vertical,none
1c,19,100159,1,44,44,21,M,NA,variable,homogeneous,3,absent,0.561872959136963,1,horizontal,horizontal,1,1.03530511856079,red,1,NaN,861.690083377915,847.425410200379,NaN,NaN,861.690083377915,847.425410200379,983.431649086356,422.862115532956,554.878267535729,529.712474266665,0,0,0,0,0,0,4,0,0,NaN,NaN,NaN,horizontal,vertical,horizontal,none,none,none
1c,19,100159,1,45,45,21,M,NA,variable,homogeneous,3,present,0.711020946502686,1,horizontal,horizontal,1,0.694120025634766,green,1,2,911.784642431215,829.192481806288,942.594190385041,388.595418998464,911.784642431215,829.192481806288,942.594190385041,388.595418998464,545.621167183745,582.212099195248,0,0,0,0,0,0,4,0,0,NaN,NaN,NaN,horizontal,vertical,vertical,none,none,none
1c,19,100159,1,46,46,21,M,NA,variable,homogeneous,4,absent,0.539641141891479,1,horizontal,horizontal,1,0.717650032043457,green,4,NaN,565.271262369628,500.363562235235,NaN,NaN,700.363562235235,834.728737630372,1034.72873763037,699.636437764765,899.636437764765,365.271262369628,565.271262369628,500.363562235235,0,0,0,0,0,0,0,4,NaN,NaN,vertical,horizontal,horizontal,horizontal,none,none
1c,19,100159,1,47,47,21,M,NA,variable,homogeneous,4,absent,0.605311870574951,1,horizontal,horizontal,1,0.92942008972168,green,2,NaN,1054.37883281626,582.212099195248,NaN,NaN,817.787900804752,854.378832816255,1054.37883281626,582.212099195248,782.212099195248,345.621167183745,545.621167183745,617.787900804752,0,0,0,0,0,4,0,0,NaN,NaN,vertical,horizontal,horizontal,horizontal,none,none
1c,19,100159,1,48,48,21,M,NA,variable,homogeneous,3,present,0.828803062438965,1,vertical,vertical,1,0.76471004486084,green,3,2,561.936991243214,508.616172865948,998.172220171528,439.523300282291,839.890788585259,851.86052685176,998.172220171528,439.523300282291,561.936991243214,508.616172865948,0,0,0,0,0,0,0,0,4,NaN,NaN,NaN,horizontal,horizontal,vertical,none,none,none
1c,19,100159,1,49,49,21,M,NA,variable,homogeneous,3,absent,0.615978002548218,1,vertical,vertical,1,0.92942008972168,red,3,NaN,692.232343256122,368.891514305654,NaN,NaN,653.738008730483,808.883771293693,1054.0296480134,622.224714400653,692.232343256122,368.891514305654,0,0,0,0,0,0,0,0,4,NaN,NaN,NaN,horizontal,vertical,vertical,none,none,none
1c,19,100159,1,50,50,21,M,NA,variable,homogeneous,6,absent,0.577409982681274,1,vertical,vertical,1,0.647060012817383,red,5,NaN,545.03883773512,595.549636358493,NaN,NaN,923.626453162816,823.028025320546,1054.96116226488,604.450363641507,931.334709102064,381.422338320961,676.373546837184,376.971974679454,545.03883773512,595.549636358493,668.665290897936,818.577661679039,0,0,0,0,4,0,vertical,vertical,horizontal,vertical,vertical,vertical
1c,19,100159,1,51,51,21,M,NA,variable,homogeneous,3,present,0.819409132003784,1,vertical,vertical,1,0.705885028839111,green,3,2,545.621167183745,582.212099195248,942.594190385041,388.595418998464,911.784642431215,829.192481806288,942.594190385041,388.595418998464,545.621167183745,582.212099195248,0,0,0,0,0,0,0,0,4,NaN,NaN,NaN,horizontal,vertical,vertical,none,none,none
1c,19,100159,1,52,52,21,M,NA,variable,homogeneous,5,absent,0.60626482963562,1,horizontal,horizontal,1,0.717650032043457,red,3,NaN,874.554784704298,356.142287229426,NaN,NaN,883.019879386575,841.107236777826,1054.96116226488,595.549636358493,874.554784704298,356.142287229426,591.116228706307,453.738008730483,596.34794493794,753.462830903772,0,0,0,0,4,0,0,NaN,vertical,horizontal,horizontal,vertical,vertical,none
1c,19,100159,1,53,53,21,M,NA,variable,homogeneous,3,absent,0.66783595085144,1,vertical,vertical,1,1.07060012817383,green,3,NaN,563.568117085469,695.524681321058,NaN,NaN,1000.94274216971,756.993676208043,835.489140744817,347.4816424709,563.568117085469,695.524681321058,0,0,0,0,0,0,0,0,4,NaN,NaN,NaN,horizontal,horizontal,vertical,none,none,none
1c,19,100159,1,54,54,21,M,NA,variable,homogeneous,6,absent,0.7047278881073,1,horizontal,horizontal,1,0.76471004486084,red,4,NaN,773.345241866748,346.39691668109,NaN,NaN,826.654758133252,853.60308331891,1032.95409169886,703.717843984329,1006.29933356561,450.114760665419,773.345241866748,346.39691668109,567.045908301137,496.282156015671,593.700666434388,749.885239334581,0,0,0,4,0,0,horizontal,vertical,horizontal,horizontal,vertical,vertical
1c,19,100159,1,55,55,21,M,NA,variable,homogeneous,5,absent,0.622594833374023,1,horizontal,horizontal,1,0.964715099334717,green,3,NaN,1039.62161830041,512.784863451954,NaN,NaN,657.405809614959,811.404581001536,956.993676208043,800.942742169714,1039.62161830041,512.784863451954,791.100628340862,345.155339110131,554.878267535729,529.712474266665,0,0,0,0,4,0,0,NaN,vertical,vertical,horizontal,vertical,horizontal,none
1c,19,100159,1,56,56,21,M,NA,variable,homogeneous,4,present,0.713772058486938,1,vertical,vertical,1,0.729415035247803,red,1,2,782.212099195248,854.378832816255,1054.37883281626,617.787900804752,782.212099195248,854.378832816255,1054.37883281626,617.787900804752,817.787900804752,345.621167183745,545.621167183745,582.212099195248,0,0,0,0,4,0,0,0,NaN,NaN,vertical,vertical,vertical,horizontal,none,none
1c,19,100159,1,57,57,21,M,NA,variable,homogeneous,3,absent,0.647994041442871,1,horizontal,horizontal,1,1.0117751121521,red,2,NaN,1042.51941165526,678.799333565612,NaN,NaN,610.498069503264,770.628304621509,1042.51941165526,678.799333565612,746.982518841471,350.57236181288,0,0,0,0,0,0,0,4,0,NaN,NaN,NaN,horizontal,horizontal,horizontal,none,none,none
1c,19,100159,1,58,58,21,M,NA,variable,homogeneous,3,absent,0.50873589515686,1,horizontal,horizontal,1,0.952950096130371,green,1,NaN,857.362518857686,848.464366520235,NaN,NaN,857.362518857686,848.464366520235,986.495193912888,426.090418184063,556.142287229426,525.445215295702,0,0,0,0,0,0,4,0,0,NaN,NaN,NaN,horizontal,horizontal,vertical,none,none,none
1c,19,100159,1,59,59,21,M,NA,variable,homogeneous,6,present,0.588786125183105,1,horizontal,horizontal,1,0.68235502243042,red,3,1,998.172220171528,439.523300282291,839.890788585259,851.86052685176,839.890788585259,851.86052685176,1038.06300875679,691.383827134052,998.172220171528,439.523300282291,760.109211414741,348.13947314824,561.936991243214,508.616172865948,601.827779828472,760.476699717708,0,0,4,0,0,0,horizontal,horizontal,horizontal,horizontal,vertical,horizontal
1c,19,100159,1,60,60,21,M,NA,variable,homogeneous,6,absent,0.562587022781372,1,horizontal,horizontal,1,0.705885028839111,red,3,NaN,1025.15163617903,480.284751489598,NaN,NaN,791.100628340862,854.844660889869,1016.25226451989,735.129412379467,1025.15163617903,480.284751489598,808.899371659138,345.155339110131,583.747735480111,464.870587620533,574.848363820974,719.715248510402,0,0,4,0,0,0,horizontal,vertical,horizontal,horizontal,vertical,vertical
1c,19,100159,1,61,61,21,M,NA,variable,homogeneous,6,absent,0.573138952255249,1,vertical,vertical,1,0.752945041656494,green,5,NaN,657.405809614959,388.595418998464,NaN,NaN,688.215357568785,829.192481806288,942.594190385041,811.404581001536,1054.37883281626,582.212099195248,911.784642431215,370.807518193712,657.405809614959,388.595418998464,545.621167183745,617.787900804752,0,0,0,0,4,0,vertical,horizontal,vertical,horizontal,vertical,vertical
1c,19,100159,1,62,62,21,M,NA,variable,homogeneous,5,present,0.547276973724365,1,vertical,vertical,1,0.729415035247803,red,1,3,777.775285599347,854.029648013395,967.295052392579,407.549057043193,777.775285599347,854.029648013395,1034.72873763037,699.636437764765,967.295052392579,407.549057043193,668.665290897936,381.422338320961,551.535633479765,657.362518857686,0,0,4,0,0,0,0,NaN,vertical,vertical,vertical,vertical,vertical,none
1c,19,100159,1,63,63,21,M,NA,variable,homogeneous,5,present,0.603739976882935,1,vertical,vertical,1,0.670590019226074,red,4,3,755.719714694933,348.874022981887,1025.15163617903,480.284751489598,688.215357568785,829.192481806288,983.431649086356,777.137884467044,1025.15163617903,480.284751489598,755.719714694933,348.874022981887,547.481642470899,564.510859255183,0,0,0,0,0,4,0,NaN,horizontal,vertical,horizontal,vertical,horizontal,none
1c,19,100159,1,64,64,21,M,NA,variable,homogeneous,3,present,0.580125093460083,1,horizontal,horizontal,1,1.0117751121521,red,1,3,664.870587620533,816.252264519889,680.284751489598,374.848363820974,664.870587620533,816.252264519889,1054.84466088987,608.899371659138,680.284751489598,374.848363820974,0,0,0,0,0,0,4,0,0,NaN,NaN,NaN,horizontal,horizontal,horizontal,none,none,none
1c,19,100159,2,1,65,21,M,NA,variable,homogeneous,4,present,0.658967018127441,1,horizontal,horizontal,1,0.658825016021728,red,4,2,570.807518193712,488.215357568785,1029.19248180629,711.784642431215,688.215357568785,829.192481806288,1029.19248180629,711.784642431215,911.784642431215,370.807518193712,570.807518193712,488.215357568785,0,0,0,0,0,0,0,4,NaN,NaN,horizontal,horizontal,horizontal,horizontal,none,none
1c,19,100159,2,2,66,21,M,NA,variable,homogeneous,6,absent,0.591693878173828,1,vertical,vertical,1,0.964715099334717,red,2,NaN,1050.31493177915,648.656293821019,NaN,NaN,883.019879386575,841.107236777826,1050.31493177915,648.656293821019,967.295052392579,407.549057043193,716.980120613425,358.892763222174,549.685068220846,551.343706178981,632.704947607421,792.450942956807,0,4,0,0,0,0,vertical,vertical,vertical,vertical,vertical,vertical
1c,19,100159,2,3,67,21,M,NA,variable,homogeneous,6,absent,0.934724092483521,1,horizontal,horizontal,1,0.752945041656494,green,4,NaN,800,345,NaN,NaN,800,855,1020.83647796503,727.5,1020.83647796503,472.5,800,345,579.163522034968,472.5,579.163522034968,727.5,0,0,0,4,0,0,vertical,vertical,vertical,horizontal,horizontal,horizontal
1c,19,100159,2,4,68,21,M,NA,variable,homogeneous,5,absent,0.645821094512939,1,vertical,vertical,1,0.611765003204346,red,1,NaN,668.665290897936,818.577661679039,NaN,NaN,668.665290897936,818.577661679039,967.295052392579,792.450942956807,1034.72873763037,500.363562235235,777.775285599347,345.970351986605,551.535633479765,542.637481142314,0,0,4,0,0,0,0,NaN,vertical,vertical,vertical,horizontal,horizontal,none
1c,19,100159,2,5,69,21,M,NA,variable,homogeneous,5,present,0.707118988037109,0,horizontal,vertical,1,0.800005054473877,green,5,4,545.621167183745,617.787900804752,704.475318678942,363.568117085469,738.309916622085,847.425410200379,1016.25226451989,735.129412379467,995.341332995339,436.089159529932,704.475318678942,363.568117085469,545.621167183745,617.787900804752,0,0,0,0,0,0,4,NaN,vertical,vertical,vertical,vertical,horizontal,none
1c,19,100159,2,6,70,21,M,NA,variable,homogeneous,3,absent,0.785190105438232,1,vertical,vertical,1,0.788240051269531,red,1,NaN,911.784642431215,829.192481806288,NaN,NaN,911.784642431215,829.192481806288,942.594190385041,388.595418998464,545.621167183745,582.212099195248,0,0,0,0,0,0,4,0,0,NaN,NaN,NaN,vertical,horizontal,horizontal,none,none,none
1c,19,100159,2,7,71,21,M,NA,variable,homogeneous,6,present,0.722990036010742,1,vertical,vertical,1,0.905890083312988,red,6,3,546.900731331463,631.076682568313,1053.09926866854,568.923317431687,700.363562235235,834.728737630372,953.462830903772,803.65205506206,1053.09926866854,568.923317431687,899.636437764765,365.271262369628,646.537169096228,396.34794493794,546.900731331463,631.076682568313,0,0,0,0,0,4,vertical,horizontal,horizontal,horizontal,vertical,vertical
1c,19,100159,2,8,72,21,M,NA,variable,homogeneous,4,absent,0.565022945404053,1,vertical,vertical,1,0.964715099334717,green,2,NaN,1039.62161830041,687.215136548046,NaN,NaN,712.784863451954,839.621618300407,1039.62161830041,687.215136548046,887.215136548046,360.378381699593,560.378381699593,512.784863451954,0,0,0,0,0,4,0,0,NaN,NaN,vertical,vertical,vertical,horizontal,none,none
1c,19,100159,2,9,73,21,M,NA,variable,homogeneous,4,absent,0.583269119262695,1,horizontal,horizontal,1,0.941185092926025,green,3,NaN,729.712474266665,354.878267535729,NaN,NaN,870.287525733335,845.121732464271,1045.12173246427,529.712474266665,729.712474266665,354.878267535729,554.878267535729,670.287525733335,0,0,0,0,0,0,4,0,NaN,NaN,horizontal,horizontal,horizontal,horizontal,none,none
1c,19,100159,2,10,74,21,M,NA,variable,homogeneous,3,absent,0.924993991851807,1,vertical,vertical,1,0.894125080108643,red,2,NaN,891.383827134052,361.936991243214,NaN,NaN,960.476699717708,798.172220171528,891.383827134052,361.936991243214,548.13947314824,639.890788585259,0,0,0,0,0,0,0,4,0,NaN,NaN,NaN,vertical,vertical,horizontal,none,none,none
1c,19,100159,2,11,75,21,M,NA,variable,homogeneous,5,absent,0.711230039596558,1,horizontal,horizontal,1,0.788240051269531,red,4,NaN,643.006323791957,399.057257830286,NaN,NaN,808.899371659138,854.844660889869,1045.12173246427,670.287525733335,942.594190385041,388.595418998464,643.006323791957,399.057257830286,560.378381699593,687.215136548046,0,0,0,0,0,4,0,NaN,vertical,horizontal,horizontal,horizontal,horizontal,none
1c,19,100159,2,12,76,21,M,NA,variable,homogeneous,3,present,0.643457174301147,1,horizontal,horizontal,1,0.694120025634766,red,2,1,813.345668841951,345.349468637584,1013.86099482608,738.882953928832,1013.86099482608,738.882953928832,813.345668841951,345.349468637584,572.793336331966,715.767577433584,0,0,0,0,0,0,0,4,0,NaN,NaN,NaN,vertical,horizontal,horizontal,none,none,none
1c,19,100159,2,13,77,21,M,NA,variable,homogeneous,3,absent,0.696943998336792,1,vertical,vertical,1,0.611765003204346,green,2,NaN,1042.51941165526,521.200666434388,NaN,NaN,746.982518841471,849.42763818712,1042.51941165526,521.200666434388,610.498069503264,429.371695378491,0,0,0,0,0,0,0,4,0,NaN,NaN,NaN,vertical,vertical,horizontal,none,none,none
1c,19,100159,2,14,78,21,M,NA,variable,homogeneous,4,absent,0.598995208740234,1,horizontal,horizontal,1,0.800005054473877,red,2,NaN,1018.57766167904,731.334709102064,NaN,NaN,668.665290897936,818.577661679039,1018.57766167904,731.334709102064,931.334709102064,381.422338320961,581.422338320961,468.665290897936,0,0,0,0,0,4,0,0,NaN,NaN,horizontal,horizontal,vertical,horizontal,none,none
1c,19,100159,2,15,79,21,M,NA,variable,homogeneous,3,present,0.540086030960083,1,vertical,vertical,1,1.04707012176514,red,2,3,844.280285305067,348.874022981887,560.378381699593,687.215136548046,995.341332995339,763.910840470068,844.280285305067,348.874022981887,560.378381699593,687.215136548046,0,0,0,0,0,0,0,4,0,NaN,NaN,NaN,horizontal,vertical,vertical,none,none,none
1c,19,100159,2,16,80,21,M,NA,variable,homogeneous,5,present,0.744576930999756,1,vertical,vertical,1,0.858830070495605,red,3,4,1032.95409169886,496.282156015671,773.345241866748,346.39691668109,672.5,820.836477965032,970.628304621509,789.501930496736,1032.95409169886,496.282156015671,773.345241866748,346.39691668109,550.57236181288,546.982518841471,0,0,0,0,4,0,0,NaN,horizontal,vertical,vertical,vertical,vertical,none
1c,19,100159,2,17,81,21,M,NA,variable,homogeneous,6,present,0.553399085998535,1,vertical,vertical,1,0.894125080108643,red,5,4,596.34794493794,446.537169096228,831.076682568313,346.900731331463,768.923317431687,853.099268668537,1003.65205506206,753.462830903772,1034.72873763037,500.363562235235,831.076682568313,346.900731331463,596.34794493794,446.537169096228,565.271262369628,699.636437764765,0,0,0,0,4,0,vertical,horizontal,vertical,vertical,vertical,horizontal
1c,19,100159,2,18,82,21,M,NA,variable,homogeneous,5,absent,0.640810012817383,1,vertical,vertical,1,0.611765003204346,green,4,NaN,593.700666434388,450.114760665419,NaN,NaN,878.799333565612,842.519411655264,1055,600,878.799333565612,357.480588344736,593.700666434388,450.114760665419,593.700666434388,749.885239334581,0,0,0,0,0,4,0,NaN,horizontal,vertical,horizontal,vertical,vertical,none
1c,19,100159,2,19,83,21,M,NA,variable,homogeneous,3,present,0.711050033569336,1,vertical,vertical,1,0.658825016021728,green,3,1,568.891514305654,707.767656743878,1008.88377129369,746.261991269517,1008.88377129369,746.261991269517,822.224714400653,345.970351986605,568.891514305654,707.767656743878,0,0,0,0,0,0,0,0,4,NaN,NaN,NaN,vertical,horizontal,vertical,none,none,none
1c,19,100159,2,20,84,21,M,NA,variable,homogeneous,4,present,0.76553201675415,1,horizontal,horizontal,1,0.811770057678223,red,1,2,935.129412379467,816.252264519889,1016.25226451989,464.870587620533,935.129412379467,816.252264519889,1016.25226451989,464.870587620533,664.870587620533,383.747735480111,583.747735480111,735.129412379467,0,0,0,0,4,0,0,0,NaN,NaN,horizontal,horizontal,horizontal,horizontal,none,none
1c,19,100159,2,21,85,21,M,NA,variable,homogeneous,5,absent,0.58605694770813,1,horizontal,horizontal,1,1.03530511856079,green,5,NaN,546.900731331463,631.076682568313,NaN,NaN,751.343706178981,850.314931779154,1023.02802532055,723.626453162816,986.495193912888,426.090418184063,692.232343256122,368.891514305654,546.900731331463,631.076682568313,0,0,0,0,0,0,4,NaN,vertical,vertical,vertical,horizontal,horizontal,none
1c,19,100159,2,22,86,21,M,NA,variable,homogeneous,4,absent,0.56815505027771,1,horizontal,horizontal,1,0.917655086517334,red,4,NaN,557.480588344736,678.799333565612,NaN,NaN,878.799333565612,842.519411655264,1042.51941165526,521.200666434388,721.200666434388,357.480588344736,557.480588344736,678.799333565612,0,0,0,0,0,0,0,4,NaN,NaN,vertical,horizontal,vertical,horizontal,none,none
1c,19,100159,2,23,87,21,M,NA,variable,homogeneous,3,present,0.555424928665161,1,horizontal,horizontal,1,0.988245105743408,red,2,3,970.628304621509,410.498069503264,550.57236181288,546.982518841471,878.799333565612,842.519411655264,970.628304621509,410.498069503264,550.57236181288,546.982518841471,0,0,0,0,0,0,0,4,0,NaN,NaN,NaN,horizontal,horizontal,vertical,none,none,none
1c,19,100159,2,24,88,21,M,NA,variable,homogeneous,6,present,0.587433099746704,1,horizontal,horizontal,1,1.03530511856079,red,6,4,548.874022981887,644.280285305067,887.215136548046,360.378381699593,712.784863451954,839.621618300407,963.910840470068,795.341332995339,1051.12597701811,555.719714694933,887.215136548046,360.378381699593,636.089159529932,404.658667004661,548.874022981887,644.280285305067,0,0,0,0,0,4,vertical,vertical,vertical,horizontal,horizontal,horizontal
1c,19,100159,2,25,89,21,M,NA,variable,homogeneous,3,absent,0.592682838439941,1,horizontal,horizontal,1,0.658825016021728,green,1,NaN,870.287525733335,845.121732464271,NaN,NaN,870.287525733335,845.121732464271,977.137884467044,416.568350913644,552.574589799621,538.309916622085,0,0,0,0,0,0,4,0,0,NaN,NaN,NaN,horizontal,vertical,vertical,none,none,none
1c,19,100159,2,26,90,21,M,NA,variable,homogeneous,3,absent,0.449714183807373,1,horizontal,horizontal,1,1.04707012176514,red,1,NaN,786.654331158049,854.650531362416,NaN,NaN,786.654331158049,854.650531362416,1027.20666366803,484.232422566416,586.139005173917,461.117046071168,0,0,0,0,0,0,4,0,0,NaN,NaN,NaN,horizontal,vertical,horizontal,none,none,none
1c,19,100159,2,27,91,21,M,NA,variable,homogeneous,3,absent,0.65588903427124,1,horizontal,horizontal,1,1.04707012176514,red,3,NaN,604.658667004661,436.089159529932,NaN,NaN,755.719714694933,851.125977018113,1039.62161830041,512.784863451954,604.658667004661,436.089159529932,0,0,0,0,0,0,0,0,4,NaN,NaN,NaN,vertical,horizontal,horizontal,none,none,none
1c,19,100159,2,28,92,21,M,NA,variable,homogeneous,5,present,0.529116868972778,1,horizontal,horizontal,1,0.811770057678223,red,1,2,768.923317431687,853.099268668537,1031.10848569435,707.767656743878,768.923317431687,853.099268668537,1031.10848569435,707.767656743878,973.909581815937,413.504806087112,676.373546837184,376.971974679454,549.685068220846,648.656293821019,0,0,4,0,0,0,0,NaN,horizontal,horizontal,vertical,vertical,horizontal,none
1c,19,100159,2,29,93,21,M,NA,variable,homogeneous,6,absent,0.519361019134521,1,vertical,vertical,1,0.76471004486084,red,4,NaN,927.5,379.163522034968,NaN,NaN,672.5,820.836477965032,927.5,820.836477965032,1055,600,927.5,379.163522034968,672.5,379.163522034968,545,600,0,0,0,4,0,0,vertical,vertical,vertical,vertical,vertical,horizontal
1c,19,100159,2,30,94,21,M,NA,variable,homogeneous,5,present,0.59754204750061,1,vertical,vertical,1,0.976480102539062,green,2,5,1043.85771277057,525.445215295702,646.537169096228,803.65205506206,946.261991269517,808.883771293693,1043.85771277057,525.445215295702,804.450363641507,345.03883773512,558.892763222174,516.980120613425,646.537169096228,803.65205506206,0,0,0,4,0,0,0,NaN,horizontal,vertical,vertical,horizontal,vertical,none
1c,19,100159,2,31,95,21,M,NA,variable,homogeneous,4,present,0.628015995025635,1,horizontal,horizontal,1,0.729415035247803,green,4,1,567.045908301137,703.717843984329,903.717843984329,832.954091698863,903.717843984329,832.954091698863,1032.95409169886,496.282156015671,696.282156015671,367.045908301137,567.045908301137,703.717843984329,0,0,0,0,0,0,0,4,NaN,NaN,vertical,vertical,vertical,horizontal,none,none
1c,19,100159,2,32,96,21,M,NA,variable,homogeneous,6,absent,0.704861879348755,1,vertical,vertical,1,0.6,green,2,NaN,983.431649086356,777.137884467044,NaN,NaN,738.309916622085,847.425410200379,983.431649086356,777.137884467044,1045.12173246427,529.712474266665,861.690083377915,352.574589799621,616.568350913644,422.862115532956,554.878267535729,670.287525733335,0,4,0,0,0,0,horizontal,vertical,horizontal,horizontal,horizontal,vertical
1c,19,100159,2,33,97,21,M,NA,variable,homogeneous,5,absent,0.56546688079834,1,horizontal,horizontal,1,0.717650032043457,red,1,NaN,795.549636358493,854.96116226488,NaN,NaN,795.549636358493,854.96116226488,1041.10723677783,683.019879386575,953.462830903772,396.34794493794,653.738008730483,391.116228706307,556.142287229426,674.554784704298,0,0,4,0,0,0,0,NaN,horizontal,vertical,horizontal,horizontal,vertical,none
1c,19,100159,2,34,98,21,M,NA,variable,homogeneous,4,present,0.669005155563354,1,vertical,vertical,1,1.00001010894775,green,2,4,1050.31493177915,648.656293821019,549.685068220846,551.343706178981,751.343706178981,850.314931779154,1050.31493177915,648.656293821019,848.656293821019,349.685068220846,549.685068220846,551.343706178981,0,0,0,0,0,4,0,0,NaN,NaN,horizontal,vertical,vertical,vertical,none,none
1c,19,100159,2,35,99,21,M,NA,variable,homogeneous,4,present,0.598546028137207,1,vertical,vertical,1,0.988245105743408,red,3,2,903.717843984329,367.045908301137,1032.95409169886,703.717843984329,696.282156015671,832.954091698863,1032.95409169886,703.717843984329,903.717843984329,367.045908301137,567.045908301137,496.282156015671,0,0,0,0,0,0,4,0,NaN,NaN,horizontal,horizontal,vertical,vertical,none,none
1c,19,100159,2,36,100,21,M,NA,variable,homogeneous,4,absent,0.603049039840698,1,vertical,vertical,1,0.823535060882568,green,4,NaN,552.574589799621,661.690083377915,NaN,NaN,861.690083377915,847.425410200379,1047.42541020038,538.309916622085,738.309916622085,352.574589799621,552.574589799621,661.690083377915,0,0,0,0,0,0,0,4,NaN,NaN,horizontal,vertical,vertical,vertical,none,none
1c,19,100159,2,37,101,21,M,NA,variable,homogeneous,5,present,0.627838850021362,1,horizontal,horizontal,1,0.611765003204346,green,3,5,1018.57766167904,468.665290897936,545.970351986605,577.775285599347,700.363562235235,834.728737630372,992.450942956807,767.295052392579,1018.57766167904,468.665290897936,742.637481142314,351.535633479765,545.970351986605,577.775285599347,0,0,0,0,4,0,0,NaN,horizontal,horizontal,horizontal,vertical,vertical,none
1c,19,100159,2,38,102,21,M,NA,variable,homogeneous,4,present,0.695568084716797,1,vertical,vertical,1,0.752945041656494,red,4,1,572.793336331966,715.767577433584,915.767577433584,827.206663668034,915.767577433584,827.206663668034,1027.20666366803,484.232422566416,684.232422566416,372.793336331966,572.793336331966,715.767577433584,0,0,0,0,0,0,0,4,NaN,NaN,horizontal,vertical,horizontal,vertical,none,none
1c,19,100159,2,39,103,21,M,NA,variable,homogeneous,6,absent,0.745496034622192,1,horizontal,horizontal,1,0.988245105743408,green,1,NaN,857.362518857686,848.464366520235,NaN,NaN,857.362518857686,848.464366520235,1043.85771277057,674.554784704298,986.495193912888,426.090418184063,742.637481142314,351.535633479765,556.142287229426,525.445215295702,613.504806087112,773.909581815937,4,0,0,0,0,0,horizontal,horizontal,horizontal,vertical,vertical,vertical
1c,19,100159,2,40,104,21,M,NA,variable,homogeneous,6,present,0.605295896530151,1,vertical,vertical,1,0.635295009613037,green,5,4,558.892763222174,516.980120613425,751.343706178981,349.685068220846,848.656293821019,850.314931779154,1041.10723677783,683.019879386575,992.450942956807,432.704947607421,751.343706178981,349.685068220846,558.892763222174,516.980120613425,607.549057043193,767.295052392579,0,0,0,0,4,0,horizontal,horizontal,vertical,vertical,vertical,vertical
1c,19,100159,2,41,105,21,M,NA,variable,homogeneous,6,present,0.624186992645264,1,horizontal,horizontal,1,0.729415035247803,red,4,5,844.280285305067,348.874022981887,604.658667004661,436.089159529932,755.719714694933,851.125977018113,995.341332995339,763.910840470068,1039.62161830041,512.784863451954,844.280285305067,348.874022981887,604.658667004661,436.089159529932,560.378381699593,687.215136548046,0,0,0,4,0,0,vertical,vertical,horizontal,horizontal,vertical,vertical
1c,19,100159,2,42,106,21,M,NA,variable,homogeneous,3,present,0.646422147750854,1,vertical,vertical,1,1.07060012817383,red,2,3,1023.02802532055,723.626453162816,795.549636358493,345.03883773512,581.422338320961,731.334709102064,1023.02802532055,723.626453162816,795.549636358493,345.03883773512,0,0,0,0,0,0,0,4,0,NaN,NaN,NaN,horizontal,vertical,horizontal,none,none,none
1c,19,100159,2,43,107,21,M,NA,variable,homogeneous,5,present,0.704660892486572,1,vertical,vertical,1,0.658825016021728,green,2,3,1034.72873763037,699.636437764765,967.295052392579,407.549057043193,777.775285599347,854.029648013395,1034.72873763037,699.636437764765,967.295052392579,407.549057043193,668.665290897936,381.422338320961,551.535633479765,657.362518857686,0,0,0,4,0,0,0,NaN,vertical,vertical,horizontal,vertical,horizontal,none
1c,19,100159,2,44,108,21,M,NA,variable,homogeneous,5,absent,0.631247997283936,1,vertical,vertical,1,0.811770057678223,red,1,NaN,782.212099195248,854.378832816255,NaN,NaN,782.212099195248,854.378832816255,1036.43188291453,695.524681321058,963.910840470068,404.658667004661,664.870587620533,383.747735480111,552.574589799621,661.690083377915,0,0,4,0,0,0,0,NaN,vertical,vertical,vertical,horizontal,horizontal,none
1c,19,100159,2,45,109,21,M,NA,variable,homogeneous,5,present,0.596940994262695,1,horizontal,horizontal,1,1.04707012176514,red,3,5,963.910840470068,404.658667004661,552.574589799621,661.690083377915,782.212099195248,854.378832816255,1036.43188291453,695.524681321058,963.910840470068,404.658667004661,664.870587620533,383.747735480111,552.574589799621,661.690083377915,0,0,0,0,4,0,0,NaN,vertical,vertical,horizontal,horizontal,vertical,none
1c,19,100159,2,46,110,21,M,NA,variable,homogeneous,3,absent,0.540899991989136,1,horizontal,horizontal,1,0.800005054473877,green,2,NaN,1041.10723677783,683.019879386575,NaN,NaN,607.549057043193,767.295052392579,1041.10723677783,683.019879386575,751.343706178981,349.685068220846,0,0,0,0,0,0,0,4,0,NaN,NaN,NaN,vertical,horizontal,vertical,none,none,none
1c,19,100159,2,47,111,21,M,NA,variable,homogeneous,3,present,0.536622047424316,1,vertical,vertical,1,0.635295009613037,green,1,2,708.616172865948,838.063008756786,1051.86052685176,560.109211414741,708.616172865948,838.063008756786,1051.86052685176,560.109211414741,639.523300282292,401.827779828472,0,0,0,0,0,0,4,0,0,NaN,NaN,NaN,vertical,vertical,vertical,none,none,none
1c,19,100159,2,48,112,21,M,NA,variable,homogeneous,4,absent,0.499023914337158,1,horizontal,horizontal,1,0.776475048065186,green,1,NaN,742.637481142314,848.464366520235,NaN,NaN,742.637481142314,848.464366520235,1048.46436652023,657.362518857686,857.362518857686,351.535633479765,551.535633479765,542.637481142314,0,0,0,0,4,0,0,0,NaN,NaN,horizontal,horizontal,horizontal,vertical,none,none
1c,19,100159,2,49,113,21,M,NA,variable,homogeneous,6,absent,0.542602062225342,1,vertical,vertical,1,0.858830070495605,green,5,NaN,646.537169096228,396.34794493794,NaN,NaN,700.363562235235,834.728737630372,953.462830903772,803.65205506206,1053.09926866854,568.923317431687,899.636437764765,365.271262369628,646.537169096228,396.34794493794,546.900731331463,631.076682568313,0,0,0,0,4,0,horizontal,vertical,vertical,vertical,vertical,vertical
1c,19,100159,2,50,114,21,M,NA,variable,homogeneous,6,present,0.466058969497681,1,horizontal,horizontal,1,0.835300064086914,green,6,5,570.807518193712,711.784642431215,588.595418998464,457.40580961496,782.212099195248,854.378832816255,1011.40458100154,742.594190385041,1029.19248180629,488.215357568785,817.787900804752,345.621167183745,588.595418998464,457.40580961496,570.807518193712,711.784642431215,0,0,0,0,0,4,horizontal,horizontal,horizontal,horizontal,vertical,horizontal
1c,19,100159,2,51,115,21,M,NA,variable,homogeneous,6,present,0.557222127914429,1,horizontal,horizontal,1,1.07060012817383,green,1,3,911.784642431215,829.192481806288,942.594190385041,388.595418998464,911.784642431215,829.192481806288,1054.37883281626,617.787900804752,942.594190385041,388.595418998464,688.215357568785,370.807518193712,545.621167183745,582.212099195248,657.405809614959,811.404581001536,4,0,0,0,0,0,horizontal,horizontal,horizontal,horizontal,vertical,vertical
1c,19,100159,2,52,116,21,M,NA,variable,homogeneous,5,present,0.676596879959106,1,vertical,vertical,1,0.611765003204346,red,5,2,579.163522034968,727.5,1053.60308331891,626.654758133252,853.017481158529,849.42763818712,1053.60308331891,626.654758133252,903.717843984329,367.045908301137,610.498069503264,429.371695378491,579.163522034968,727.5,0,0,0,0,0,0,4,NaN,horizontal,vertical,vertical,vertical,vertical,none
1c,19,100159,2,53,117,21,M,NA,variable,homogeneous,4,present,0.522697925567627,1,horizontal,horizontal,1,0.623530006408691,green,2,4,1054.37883281626,582.212099195248,545.621167183745,617.787900804752,817.787900804752,854.378832816255,1054.37883281626,582.212099195248,782.212099195248,345.621167183745,545.621167183745,617.787900804752,0,0,0,0,0,4,0,0,NaN,NaN,vertical,horizontal,horizontal,horizontal,none,none
1c,19,100159,2,54,118,21,M,NA,variable,homogeneous,3,present,0.519801139831543,0,horizontal,vertical,1,0.92942008972168,green,3,2,574.848363820974,719.715248510402,808.899371659138,345.155339110131,1016.25226451989,735.129412379467,808.899371659138,345.155339110131,574.848363820974,719.715248510402,0,0,0,0,0,0,0,0,4,NaN,NaN,NaN,vertical,vertical,horizontal,none,none,none
1c,19,100159,2,55,119,21,M,NA,variable,homogeneous,6,absent,0.651262998580933,1,horizontal,horizontal,1,0.635295009613037,red,4,NaN,795.549636358493,345.03883773512,NaN,NaN,804.450363641507,854.96116226488,1023.02802532055,723.626453162816,1018.57766167904,468.665290897936,795.549636358493,345.03883773512,576.971974679454,476.373546837184,581.422338320961,731.334709102064,0,0,0,4,0,0,horizontal,horizontal,horizontal,horizontal,horizontal,horizontal
1c,19,100159,2,56,120,21,M,NA,variable,homogeneous,4,present,0.62775182723999,1,vertical,vertical,1,0.964715099334717,green,4,3,579.163522034968,727.5,672.5,379.163522034968,927.5,820.836477965032,1020.83647796503,472.5,672.5,379.163522034968,579.163522034968,727.5,0,0,0,0,0,0,0,4,NaN,NaN,vertical,horizontal,horizontal,vertical,none,none
1c,19,100159,2,57,121,21,M,NA,variable,homogeneous,6,absent,0.74633002281189,0,horizontal,vertical,1,0.894125080108643,red,2,NaN,1018.57766167904,731.334709102064,NaN,NaN,795.549636358493,854.96116226488,1018.57766167904,731.334709102064,1023.02802532055,476.373546837184,804.450363641507,345.03883773512,581.422338320961,468.665290897936,576.971974679454,723.626453162816,0,4,0,0,0,0,vertical,horizontal,vertical,vertical,horizontal,horizontal
1c,19,100159,2,58,122,21,M,NA,variable,homogeneous,6,present,0.844631910324097,1,vertical,vertical,1,0.76471004486084,green,6,1,557.480588344736,678.799333565612,746.982518841471,849.42763818712,746.982518841471,849.42763818712,989.501930496736,770.628304621509,1042.51941165526,521.200666434388,853.017481158529,350.57236181288,610.498069503264,429.371695378491,557.480588344736,678.799333565612,0,0,0,0,0,4,horizontal,vertical,horizontal,horizontal,horizontal,vertical
1c,19,100159,2,59,123,21,M,NA,variable,homogeneous,5,absent,0.656121969223022,1,horizontal,horizontal,1,0.717650032043457,green,4,NaN,639.523300282292,401.827779828472,NaN,NaN,813.345668841951,854.650531362416,1046.31108570371,665.998856501143,938.882953928832,386.139005173917,639.523300282292,401.827779828472,561.936991243214,691.383827134052,0,0,0,0,0,4,0,NaN,horizontal,vertical,horizontal,horizontal,vertical,none
1c,19,100159,2,60,124,21,M,NA,variable,homogeneous,3,present,0.592525959014893,1,horizontal,horizontal,1,0.76471004486084,green,1,3,923.626453162816,823.028025320546,545.03883773512,595.549636358493,923.626453162816,823.028025320546,931.334709102064,381.422338320961,545.03883773512,595.549636358493,0,0,0,0,0,0,4,0,0,NaN,NaN,NaN,horizontal,horizontal,horizontal,none,none,none
1c,19,100159,2,61,125,21,M,NA,variable,homogeneous,5,absent,0.620731115341187,1,vertical,vertical,1,0.811770057678223,green,2,NaN,1051.12597701811,644.280285305067,NaN,NaN,835.489140744817,852.518357529101,1051.12597701811,644.280285305067,919.715248510402,374.848363820974,622.862115532956,416.568350913644,570.807518193712,711.784642431215,0,0,0,4,0,0,0,NaN,vertical,vertical,vertical,vertical,vertical,none
1c,19,100159,2,62,126,21,M,NA,variable,homogeneous,3,absent,0.549638986587524,1,vertical,vertical,1,0.823535060882568,green,1,NaN,903.717843984329,832.954091698863,NaN,NaN,903.717843984329,832.954091698863,949.885239334581,393.700666434388,546.39691668109,573.345241866748,0,0,0,0,0,0,4,0,0,NaN,NaN,NaN,vertical,vertical,horizontal,none,none,none
1c,19,100159,2,63,127,21,M,NA,variable,homogeneous,4,absent,0.554987907409668,1,vertical,vertical,1,0.705885028839111,red,4,NaN,607.549057043193,767.295052392579,NaN,NaN,967.295052392579,792.450942956807,992.450942956807,432.704947607421,632.704947607421,407.549057043193,607.549057043193,767.295052392579,0,0,0,0,0,0,0,4,NaN,NaN,vertical,vertical,horizontal,vertical,none,none
1c,19,100159,2,64,128,21,M,NA,variable,homogeneous,4,absent,0.580960988998413,1,vertical,vertical,1,0.92942008972168,red,2,NaN,1029.19248180629,711.784642431215,NaN,NaN,688.215357568785,829.192481806288,1029.19248180629,711.784642431215,911.784642431215,370.807518193712,570.807518193712,488.215357568785,0,0,0,0,0,4,0,0,NaN,NaN,horizontal,vertical,horizontal,vertical,none,none
1c,19,100159,3,1,129,21,M,NA,variable,homogeneous,5,present,0.828162908554077,1,horizontal,horizontal,1,0.976480102539062,red,4,3,579.163522034968,472.5,853.017481158529,350.57236181288,903.717843984329,832.954091698863,1053.60308331891,573.345241866748,853.017481158529,350.57236181288,579.163522034968,472.5,610.498069503264,770.628304621509,0,0,0,0,0,4,0,NaN,vertical,vertical,horizontal,horizontal,horizontal,none
1c,19,100159,3,2,130,21,M,NA,variable,homogeneous,6,present,0.607419013977051,1,horizontal,horizontal,1,0.729415035247803,green,2,4,946.261991269517,808.883771293693,907.767656743878,368.891514305654,692.232343256122,831.108485694346,946.261991269517,808.883771293693,1054.0296480134,577.775285599347,907.767656743878,368.891514305654,653.738008730483,391.116228706307,545.970351986605,622.224714400653,0,4,0,0,0,0,vertical,horizontal,horizontal,horizontal,horizontal,vertical
1c,19,100159,3,3,131,21,M,NA,variable,homogeneous,4,absent,0.565526008605957,1,horizontal,horizontal,1,0.694120025634766,green,4,NaN,565.271262369628,500.363562235235,NaN,NaN,700.363562235235,834.728737630372,1034.72873763037,699.636437764765,899.636437764765,365.271262369628,565.271262369628,500.363562235235,0,0,0,0,0,0,0,4,NaN,NaN,horizontal,vertical,vertical,horizontal,none,none
1c,19,100159,3,4,132,21,M,NA,variable,homogeneous,6,present,0.71527886390686,0,vertical,horizontal,1,0.905890083312988,red,2,1,1047.42541020038,661.690083377915,870.287525733335,845.121732464271,870.287525733335,845.121732464271,1047.42541020038,661.690083377915,977.137884467044,416.568350913644,729.712474266665,354.878267535729,552.574589799621,538.309916622085,622.862115532956,783.431649086356,0,4,0,0,0,0,vertical,vertical,horizontal,vertical,vertical,vertical
1c,19,100159,3,5,133,21,M,NA,variable,homogeneous,4,present,0.590057849884033,1,horizontal,horizontal,1,0.623530006408691,green,3,2,712.784863451954,360.378381699593,1039.62161830041,512.784863451954,887.215136548046,839.621618300407,1039.62161830041,512.784863451954,712.784863451954,360.378381699593,560.378381699593,687.215136548046,0,0,0,0,0,0,4,0,NaN,NaN,vertical,horizontal,horizontal,vertical,none,none
1c,19,100159,3,6,134,21,M,NA,variable,homogeneous,4,absent,0.627103090286255,1,vertical,vertical,1,0.658825016021728,green,1,NaN,822.224714400653,854.029648013395,NaN,NaN,822.224714400653,854.029648013395,1054.0296480134,577.775285599347,777.775285599347,345.970351986605,545.970351986605,622.224714400653,0,0,0,0,4,0,0,0,NaN,NaN,vertical,vertical,vertical,vertical,none,none
1c,19,100159,3,7,135,21,M,NA,variable,homogeneous,4,absent,0.584015846252441,1,vertical,vertical,1,0.800005054473877,red,3,NaN,725.445215295702,356.142287229426,NaN,NaN,874.554784704298,843.857712770574,1043.85771277057,525.445215295702,725.445215295702,356.142287229426,556.142287229426,674.554784704298,0,0,0,0,0,0,4,0,NaN,NaN,vertical,horizontal,vertical,horizontal,none,none
1c,19,100159,3,8,136,21,M,NA,variable,homogeneous,5,present,0.61841607093811,1,vertical,vertical,1,0.92942008972168,green,1,2,786.654331158049,854.650531362416,1038.06300875679,691.383827134052,786.654331158049,854.650531362416,1038.06300875679,691.383827134052,960.476699717708,401.827779828472,661.117046071168,386.139005173917,553.688914296288,665.998856501143,0,0,4,0,0,0,0,NaN,vertical,horizontal,horizontal,vertical,horizontal,none
1c,19,100159,3,9,137,21,M,NA,variable,homogeneous,3,absent,0.563732862472534,1,vertical,vertical,1,1.04707012176514,red,3,NaN,632.704947607421,407.549057043193,NaN,NaN,716.980120613425,841.107236777826,1050.31493177915,551.343706178981,632.704947607421,407.549057043193,0,0,0,0,0,0,0,0,4,NaN,NaN,NaN,vertical,horizontal,vertical,none,none,none
1c,19,100159,3,10,138,21,M,NA,variable,homogeneous,6,absent,0.50129508972168,1,horizontal,horizontal,1,0.894125080108643,green,4,NaN,826.654758133252,346.39691668109,NaN,NaN,773.345241866748,853.60308331891,1006.29933356561,749.885239334581,1032.95409169886,496.282156015671,826.654758133252,346.39691668109,593.700666434388,450.114760665419,567.045908301137,703.717843984329,0,0,0,4,0,0,horizontal,vertical,horizontal,horizontal,vertical,vertical
1c,19,100159,3,11,139,21,M,NA,variable,homogeneous,3,absent,0.522454977035522,1,horizontal,horizontal,1,0.752945041656494,green,1,NaN,786.654331158049,854.650531362416,NaN,NaN,786.654331158049,854.650531362416,1027.20666366803,484.232422566416,586.139005173917,461.117046071168,0,0,0,0,0,0,4,0,0,NaN,NaN,NaN,horizontal,vertical,horizontal,none,none,none
1c,19,100159,3,12,140,21,M,NA,variable,homogeneous,3,absent,0.51117205619812,1,horizontal,horizontal,1,0.905890083312988,red,2,NaN,992.450942956807,432.704947607421,NaN,NaN,848.656293821019,850.314931779154,992.450942956807,432.704947607421,558.892763222174,516.980120613425,0,0,0,0,0,0,0,4,0,NaN,NaN,NaN,vertical,horizontal,horizontal,none,none,none
1c,19,100159,3,13,141,21,M,NA,variable,homogeneous,5,present,0.55453085899353,1,horizontal,horizontal,1,0.84706506729126,green,3,2,938.882953928832,386.139005173917,1046.31108570371,665.998856501143,813.345668841951,854.650531362416,1046.31108570371,665.998856501143,938.882953928832,386.139005173917,639.523300282292,401.827779828472,561.936991243214,691.383827134052,0,0,0,0,4,0,0,NaN,horizontal,vertical,horizontal,vertical,horizontal,none
1c,19,100159,3,14,142,21,M,NA,variable,homogeneous,6,absent,0.555780172348022,1,horizontal,horizontal,1,0.905890083312988,green,5,NaN,599.057257830286,443.006323791957,NaN,NaN,764.510859255183,852.518357529101,1000.94274216971,756.993676208043,1036.43188291453,504.475318678942,835.489140744817,347.4816424709,599.057257830286,443.006323791957,563.568117085469,695.524681321058,0,0,0,0,4,0,horizontal,horizontal,horizontal,vertical,horizontal,horizontal
1c,19,100159,3,15,143,21,M,NA,variable,homogeneous,3,present,0.860891103744507,1,vertical,vertical,1,0.68235502243042,red,3,2,568.891514305654,707.767656743878,822.224714400653,345.970351986605,1008.88377129369,746.261991269517,822.224714400653,345.970351986605,568.891514305654,707.767656743878,0,0,0,0,0,0,0,0,4,NaN,NaN,NaN,vertical,horizontal,vertical,none,none,none
1c,19,100159,3,16,144,21,M,NA,variable,homogeneous,3,present,0.561967849731445,1,vertical,vertical,1,1.0117751121521,red,3,2,738.309916622085,352.574589799621,1045.12173246427,670.287525733335,616.568350913644,777.137884467044,1045.12173246427,670.287525733335,738.309916622085,352.574589799621,0,0,0,0,0,0,0,0,4,NaN,NaN,NaN,vertical,horizontal,vertical,none,none,none
1c,19,100159,3,17,145,21,M,NA,variable,homogeneous,5,absent,0.595561027526855,1,horizontal,horizontal,1,1.08236513137817,red,2,NaN,1053.60308331891,573.345241866748,NaN,NaN,903.717843984329,832.954091698863,1053.60308331891,573.345241866748,853.017481158529,350.57236181288,579.163522034968,472.5,610.498069503264,770.628304621509,0,0,0,4,0,0,0,NaN,vertical,horizontal,horizontal,horizontal,vertical,none
1c,19,100159,3,18,146,21,M,NA,variable,homogeneous,5,absent,0.642557144165039,1,vertical,vertical,1,0.952950096130371,green,3,NaN,989.501930496736,429.371695378491,NaN,NaN,746.982518841471,849.42763818712,1020.83647796503,727.5,989.501930496736,429.371695378491,696.282156015671,367.045908301137,546.39691668109,626.654758133252,0,0,0,0,4,0,0,NaN,horizontal,horizontal,vertical,vertical,vertical,none
1c,19,100159,3,19,147,21,M,NA,variable,homogeneous,6,present,0.660526990890503,1,horizontal,horizontal,1,0.647060012817383,red,2,6,1011.40458100154,742.594190385041,570.807518193712,711.784642431215,782.212099195248,854.378832816255,1011.40458100154,742.594190385041,1029.19248180629,488.215357568785,817.787900804752,345.621167183745,588.595418998464,457.40580961496,570.807518193712,711.784642431215,0,4,0,0,0,0,horizontal,horizontal,horizontal,horizontal,horizontal,horizontal
1c,19,100159,3,20,148,21,M,NA,variable,homogeneous,5,absent,0.482698917388916,1,horizontal,horizontal,1,0.835300064086914,green,2,NaN,1018.57766167904,731.334709102064,NaN,NaN,742.637481142314,848.464366520235,1018.57766167904,731.334709102064,992.450942956807,432.704947607421,700.363562235235,365.271262369628,545.970351986605,622.224714400653,0,0,0,4,0,0,0,NaN,horizontal,horizontal,vertical,horizontal,horizontal,none
1c,19,100159,3,21,149,21,M,NA,variable,homogeneous,5,absent,0.578989028930664,1,vertical,vertical,1,0.92942008972168,red,1,NaN,688.215357568785,829.192481806288,NaN,NaN,688.215357568785,829.192481806288,983.431649086356,777.137884467044,1025.15163617903,480.284751489598,755.719714694933,348.874022981887,547.481642470899,564.510859255183,0,0,4,0,0,0,0,NaN,vertical,horizontal,horizontal,vertical,vertical,none
1c,19,100159,3,22,150,21,M,NA,variable,homogeneous,4,absent,0.554444074630737,1,vertical,vertical,1,0.76471004486084,green,4,NaN,546.39691668109,573.345241866748,NaN,NaN,773.345241866748,853.60308331891,1053.60308331891,626.654758133252,826.654758133252,346.39691668109,546.39691668109,573.345241866748,0,0,0,0,0,0,0,4,NaN,NaN,vertical,horizontal,horizontal,vertical,none,none
1c,19,100159,3,23,151,21,M,NA,variable,homogeneous,6,present,0.602339029312134,1,vertical,vertical,1,1.03530511856079,red,3,4,1052.5183575291,564.510859255183,895.524681321058,363.568117085469,704.475318678942,836.431882914531,956.993676208043,800.942742169714,1052.5183575291,564.510859255183,895.524681321058,363.568117085469,643.006323791957,399.057257830286,547.481642470899,635.489140744817,0,0,4,0,0,0,horizontal,horizontal,vertical,vertical,horizontal,horizontal
1c,19,100159,3,24,152,21,M,NA,variable,homogeneous,5,absent,0.455996036529541,1,horizontal,horizontal,1,1.07060012817383,red,3,NaN,1023.02802532055,476.373546837184,NaN,NaN,692.232343256122,831.108485694346,986.495193912888,773.909581815937,1023.02802532055,476.373546837184,751.343706178981,349.685068220846,546.900731331463,568.923317431687,0,0,0,0,4,0,0,NaN,horizontal,vertical,horizontal,vertical,horizontal,none
1c,19,100159,3,25,153,21,M,NA,variable,homogeneous,3,present,0.619188070297241,1,horizontal,horizontal,1,0.705885028839111,green,3,1,548.874022981887,555.719714694933,887.215136548046,839.621618300407,887.215136548046,839.621618300407,963.910840470068,404.658667004661,548.874022981887,555.719714694933,0,0,0,0,0,0,0,0,4,NaN,NaN,NaN,vertical,vertical,horizontal,none,none,none
1c,19,100159,3,26,154,21,M,NA,variable,homogeneous,5,present,0.668527841567993,1,vertical,vertical,1,0.84706506729126,red,2,3,953.462830903772,803.65205506206,1041.10723677783,516.980120613425,653.738008730483,808.883771293693,953.462830903772,803.65205506206,1041.10723677783,516.980120613425,795.549636358493,345.03883773512,556.142287229426,525.445215295702,0,0,0,4,0,0,0,NaN,horizontal,vertical,horizontal,vertical,vertical,none
1c,19,100159,3,27,155,21,M,NA,variable,homogeneous,5,absent,0.59471583366394,1,vertical,vertical,1,0.635295009613037,red,3,NaN,1023.02802532055,476.373546837184,NaN,NaN,692.232343256122,831.108485694346,986.495193912888,773.909581815937,1023.02802532055,476.373546837184,751.343706178981,349.685068220846,546.900731331463,568.923317431687,0,0,0,0,4,0,0,NaN,vertical,horizontal,vertical,horizontal,horizontal,none
1c,19,100159,3,28,156,21,M,NA,variable,homogeneous,5,absent,0.616223096847534,1,horizontal,horizontal,1,1.05883512496948,green,5,NaN,636.089159529932,795.341332995339,NaN,NaN,935.129412379467,816.252264519889,1047.42541020038,538.309916622085,817.787900804752,345.621167183745,563.568117085469,504.475318678942,636.089159529932,795.341332995339,0,0,0,0,0,0,4,NaN,vertical,vertical,horizontal,horizontal,horizontal,none
1c,19,100159,3,29,157,21,M,NA,variable,homogeneous,5,present,0.71793007850647,1,horizontal,horizontal,1,1.08236513137817,green,3,2,800,345,1042.51941165526,521.200666434388,949.885239334581,806.299333565612,1042.51941165526,521.200666434388,800,345,557.480588344736,521.200666434388,650.114760665419,806.299333565612,0,0,0,0,4,0,0,NaN,horizontal,horizontal,horizontal,vertical,vertical,none
1c,19,100159,3,30,158,21,M,NA,variable,homogeneous,4,present,0.517107009887695,1,vertical,vertical,1,1.02354011535645,red,3,2,629.371695378491,410.498069503264,989.501930496736,429.371695378491,970.628304621509,789.501930496736,989.501930496736,429.371695378491,629.371695378491,410.498069503264,610.498069503264,770.628304621509,0,0,0,0,0,0,4,0,NaN,NaN,vertical,vertical,vertical,horizontal,none,none
1c,19,100159,3,31,159,21,M,NA,variable,homogeneous,6,absent,0.601521968841553,1,horizontal,horizontal,1,1.08236513137817,red,1,NaN,768.923317431687,853.099268668537,NaN,NaN,768.923317431687,853.099268668537,1003.65205506206,753.462830903772,1034.72873763037,500.363562235235,831.076682568313,346.900731331463,596.34794493794,446.537169096228,565.271262369628,699.636437764765,4,0,0,0,0,0,horizontal,horizontal,horizontal,vertical,vertical,vertical
1c,19,100159,3,32,160,21,M,NA,variable,homogeneous,5,present,0.727202892303467,1,vertical,vertical,1,1.07060012817383,red,5,1,613.504806087112,773.909581815937,907.767656743878,831.108485694346,907.767656743878,831.108485694346,1053.09926866854,568.923317431687,848.656293821019,349.685068220846,576.971974679454,476.373546837184,613.504806087112,773.909581815937,0,0,0,0,0,0,4,NaN,horizontal,vertical,vertical,vertical,vertical,none
1c,19,100159,3,33,161,21,M,NA,variable,homogeneous,3,absent,0.506284952163696,1,horizontal,horizontal,1,0.611765003204346,green,1,NaN,848.656293821019,850.314931779154,NaN,NaN,848.656293821019,850.314931779154,992.450942956807,432.704947607421,558.892763222174,516.980120613425,0,0,0,0,0,0,4,0,0,NaN,NaN,NaN,horizontal,vertical,horizontal,none,none,none
1c,19,100159,3,34,162,21,M,NA,variable,homogeneous,6,absent,0.585644006729126,1,horizontal,horizontal,1,0.858830070495605,red,2,NaN,953.462830903772,803.65205506206,NaN,NaN,700.363562235235,834.728737630372,953.462830903772,803.65205506206,1053.09926866854,568.923317431687,899.636437764765,365.271262369628,646.537169096228,396.34794493794,546.900731331463,631.076682568313,0,4,0,0,0,0,horizontal,horizontal,vertical,vertical,vertical,horizontal
1c,19,100159,3,35,163,21,M,NA,variable,homogeneous,4,present,0.649564027786255,1,vertical,vertical,1,0.611765003204346,red,4,1,560.378381699593,687.215136548046,887.215136548046,839.621618300407,887.215136548046,839.621618300407,1039.62161830041,512.784863451954,712.784863451954,360.378381699593,560.378381699593,687.215136548046,0,0,0,0,0,0,0,4,NaN,NaN,horizontal,horizontal,horizontal,vertical,none,none
1c,19,100159,3,36,164,21,M,NA,variable,homogeneous,3,present,0.682565927505493,1,vertical,vertical,1,0.988245105743408,green,3,2,639.523300282292,401.827779828472,1051.86052685176,560.109211414741,708.616172865948,838.063008756786,1051.86052685176,560.109211414741,639.523300282292,401.827779828472,0,0,0,0,0,0,0,0,4,NaN,NaN,NaN,horizontal,horizontal,vertical,none,none,none
1c,19,100159,3,37,165,21,M,NA,variable,homogeneous,6,absent,0.605903148651123,1,vertical,vertical,1,0.870595073699951,green,1,NaN,734.001143498857,846.311085703712,NaN,NaN,734.001143498857,846.311085703712,980.31222920257,780.31222920257,1046.31108570371,534.001143498857,865.998856501143,353.688914296288,619.68777079743,419.68777079743,553.688914296288,665.998856501143,4,0,0,0,0,0,vertical,horizontal,vertical,vertical,vertical,vertical
1c,19,100159,3,38,166,21,M,NA,variable,homogeneous,3,present,0.580970048904419,1,horizontal,horizontal,1,0.741180038452148,red,1,3,768.923317431687,853.099268668537,596.34794493794,446.537169096228,768.923317431687,853.099268668537,1034.72873763037,500.363562235235,596.34794493794,446.537169096228,0,0,0,0,0,0,4,0,0,NaN,NaN,NaN,horizontal,horizontal,vertical,none,none,none
1c,19,100159,3,39,167,21,M,NA,variable,homogeneous,6,absent,0.541521072387695,1,vertical,vertical,1,0.635295009613037,red,4,NaN,865.998856501143,353.688914296288,NaN,NaN,734.001143498857,846.311085703712,980.31222920257,780.31222920257,1046.31108570371,534.001143498857,865.998856501143,353.688914296288,619.68777079743,419.68777079743,553.688914296288,665.998856501143,0,0,0,4,0,0,horizontal,horizontal,vertical,vertical,vertical,vertical
1c,19,100159,3,40,168,21,M,NA,variable,homogeneous,3,absent,0.51087498664856,1,vertical,vertical,1,0.917655086517334,red,1,NaN,782.212099195248,854.378832816255,NaN,NaN,782.212099195248,854.378832816255,1029.19248180629,488.215357568785,588.595418998464,457.40580961496,0,0,0,0,0,0,4,0,0,NaN,NaN,NaN,vertical,vertical,horizontal,none,none,none
1c,19,100159,3,41,169,21,M,NA,variable,homogeneous,4,present,0.522751808166504,1,horizontal,horizontal,1,1.07060012817383,green,4,2,607.549057043193,767.295052392579,992.450942956807,432.704947607421,967.295052392579,792.450942956807,992.450942956807,432.704947607421,632.704947607421,407.549057043193,607.549057043193,767.295052392579,0,0,0,0,0,0,0,4,NaN,NaN,horizontal,vertical,vertical,horizontal,none,none
1c,19,100159,3,42,170,21,M,NA,variable,homogeneous,3,present,0.529820919036865,1,horizontal,horizontal,1,0.823535060882568,green,3,2,558.892763222174,683.019879386575,848.656293821019,349.685068220846,992.450942956807,767.295052392579,848.656293821019,349.685068220846,558.892763222174,683.019879386575,0,0,0,0,0,0,0,0,4,NaN,NaN,NaN,horizontal,horizontal,horizontal,none,none,none
1c,19,100159,3,43,171,21,M,NA,variable,homogeneous,3,absent,0.529819011688232,1,vertical,vertical,1,1.05883512496948,green,2,NaN,970.628304621509,410.498069503264,NaN,NaN,878.799333565612,842.519411655264,970.628304621509,410.498069503264,550.57236181288,546.982518841471,0,0,0,0,0,0,0,4,0,NaN,NaN,NaN,vertical,vertical,vertical,none,none,none
1c,19,100159,3,44,172,21,M,NA,variable,homogeneous,4,absent,0.594391107559204,1,horizontal,horizontal,1,0.882360076904297,green,2,NaN,1039.62161830041,512.784863451954,NaN,NaN,887.215136548046,839.621618300407,1039.62161830041,512.784863451954,712.784863451954,360.378381699593,560.378381699593,687.215136548046,0,0,0,0,0,4,0,0,NaN,NaN,vertical,horizontal,vertical,horizontal,none,none
1c,19,100159,3,45,173,21,M,NA,variable,homogeneous,4,absent,0.505446910858154,1,vertical,vertical,1,0.752945041656494,red,1,NaN,911.784642431215,829.192481806288,NaN,NaN,911.784642431215,829.192481806288,1029.19248180629,488.215357568785,688.215357568785,370.807518193712,570.807518193712,711.784642431215,0,0,0,0,4,0,0,0,NaN,NaN,vertical,vertical,horizontal,vertical,none,none
1c,19,100159,3,46,174,21,M,NA,variable,homogeneous,5,present,0.71582293510437,1,vertical,vertical,1,1.00001010894775,green,2,1,973.909581815937,786.495193912888,676.373546837184,823.028025320546,676.373546837184,823.028025320546,973.909581815937,786.495193912888,1031.10848569435,492.232343256122,768.923317431687,346.900731331463,549.685068220846,551.343706178981,0,0,0,4,0,0,0,NaN,horizontal,vertical,vertical,horizontal,vertical,none
1c,19,100159,3,47,175,21,M,NA,variable,homogeneous,4,absent,0.741743087768555,1,horizontal,horizontal,1,0.776475048065186,red,2,NaN,1054.65053136242,613.345668841951,NaN,NaN,786.654331158049,854.650531362416,1054.65053136242,613.345668841951,813.345668841951,345.349468637584,545.349468637584,586.654331158049,0,0,0,0,0,4,0,0,NaN,NaN,vertical,horizontal,vertical,vertical,none,none
1c,19,100159,3,48,176,21,M,NA,variable,homogeneous,5,absent,0.528994798660278,1,vertical,vertical,1,0.611765003204346,green,1,NaN,844.280285305067,851.125977018113,NaN,NaN,844.280285305067,851.125977018113,1052.5183575291,635.489140744817,911.784642431215,370.807518193712,616.568350913644,422.862115532956,574.848363820974,719.715248510402,0,0,4,0,0,0,0,NaN,vertical,vertical,vertical,horizontal,vertical,none
1c,19,100159,3,49,177,21,M,NA,variable,homogeneous,6,absent,0.601485967636108,1,vertical,vertical,1,0.68235502243042,green,3,NaN,1054.37883281626,582.212099195248,NaN,NaN,688.215357568785,829.192481806288,942.594190385041,811.404581001536,1054.37883281626,582.212099195248,911.784642431215,370.807518193712,657.405809614959,388.595418998464,545.621167183745,617.787900804752,0,0,4,0,0,0,horizontal,horizontal,vertical,vertical,horizontal,vertical
1c,19,100159,3,50,178,21,M,NA,variable,homogeneous,6,present,0.576094150543213,1,horizontal,horizontal,1,0.917655086517334,red,2,5,1054.84466088987,608.899371659138,545.155339110131,591.100628340862,919.715248510402,825.151636179026,1054.84466088987,608.899371659138,935.129412379467,383.747735480111,680.284751489598,374.848363820974,545.155339110131,591.100628340862,664.870587620533,816.252264519889,0,4,0,0,0,0,horizontal,horizontal,vertical,vertical,vertical,vertical
1c,19,100159,3,51,179,21,M,NA,variable,homogeneous,4,present,0.580278873443604,1,vertical,vertical,1,1.02354011535645,green,1,3,891.383827134052,838.063008756786,708.616172865948,361.936991243214,891.383827134052,838.063008756786,1038.06300875679,508.616172865948,708.616172865948,361.936991243214,561.936991243214,691.383827134052,0,0,0,0,4,0,0,0,NaN,NaN,vertical,vertical,vertical,horizontal,none,none
1c,19,100159,3,52,180,21,M,NA,variable,homogeneous,3,present,0.549357175827026,1,horizontal,horizontal,1,1.05883512496948,red,1,3,938.882953928832,813.860994826083,545.349468637584,613.345668841951,938.882953928832,813.860994826083,915.767577433584,372.793336331966,545.349468637584,613.345668841951,0,0,0,0,0,0,4,0,0,NaN,NaN,NaN,horizontal,horizontal,vertical,none,none,none
1c,19,100159,3,53,181,21,M,NA,variable,homogeneous,6,present,0.794080972671509,1,horizontal,horizontal,1,0.882360076904297,green,5,1,565.271262369628,500.363562235235,831.076682568313,853.099268668537,831.076682568313,853.099268668537,1034.72873763037,699.636437764765,1003.65205506206,446.537169096228,768.923317431687,346.900731331463,565.271262369628,500.363562235235,596.34794493794,753.462830903772,0,0,0,0,4,0,horizontal,vertical,horizontal,vertical,horizontal,vertical
1c,19,100159,3,54,182,21,M,NA,variable,homogeneous,4,present,0.660300970077515,1,horizontal,horizontal,1,0.917655086517334,red,3,1,946.261991269517,391.116228706307,653.738008730483,808.883771293693,653.738008730483,808.883771293693,1008.88377129369,746.261991269517,946.261991269517,391.116228706307,591.116228706307,453.738008730483,0,0,0,0,0,0,4,0,NaN,NaN,horizontal,vertical,horizontal,horizontal,none,none
1c,19,100159,3,55,183,21,M,NA,variable,homogeneous,3,absent,0.513749122619629,1,vertical,vertical,1,1.0117751121521,green,1,NaN,822.224714400653,854.029648013395,NaN,NaN,822.224714400653,854.029648013395,1008.88377129369,453.738008730483,568.891514305654,492.232343256122,0,0,0,0,0,0,4,0,0,NaN,NaN,NaN,vertical,horizontal,vertical,none,none,none
1c,19,100159,3,56,184,21,M,NA,variable,homogeneous,3,absent,0.501368045806885,1,horizontal,horizontal,1,0.647060012817383,red,2,NaN,1050.31493177915,648.656293821019,NaN,NaN,632.704947607421,792.450942956807,1050.31493177915,648.656293821019,716.980120613425,358.892763222174,0,0,0,0,0,0,0,4,0,NaN,NaN,NaN,horizontal,horizontal,horizontal,none,none,none
1c,19,100159,3,57,185,21,M,NA,variable,homogeneous,4,absent,0.624782085418701,1,horizontal,horizontal,1,0.858830070495605,red,1,NaN,668.665290897936,818.577661679039,NaN,NaN,668.665290897936,818.577661679039,1018.57766167904,731.334709102064,931.334709102064,381.422338320961,581.422338320961,468.665290897936,0,0,0,0,4,0,0,0,NaN,NaN,horizontal,vertical,horizontal,horizontal,none,none
1c,19,100159,3,58,186,21,M,NA,variable,homogeneous,5,present,0.627065896987915,1,horizontal,horizontal,1,0.882360076904297,red,5,2,545.621167183745,582.212099195248,995.341332995339,763.910840470068,704.475318678942,836.431882914531,995.341332995339,763.910840470068,1016.25226451989,464.870587620533,738.309916622085,352.574589799621,545.621167183745,582.212099195248,0,0,0,0,0,0,4,NaN,vertical,vertical,horizontal,vertical,horizontal,none
1c,19,100159,3,59,187,21,M,NA,variable,homogeneous,6,present,0.538802146911621,1,vertical,vertical,1,0.941185092926025,green,1,6,839.890788585259,851.86052685176,601.827779828472,760.476699717708,839.890788585259,851.86052685176,1038.06300875679,691.383827134052,998.172220171528,439.523300282291,760.109211414741,348.13947314824,561.936991243214,508.616172865948,601.827779828472,760.476699717708,4,0,0,0,0,0,vertical,horizontal,horizontal,vertical,vertical,vertical
1c,19,100159,3,60,188,21,M,NA,variable,homogeneous,4,present,0.60649299621582,1,vertical,vertical,1,0.84706506729126,green,3,4,643.006323791957,399.057257830286,599.057257830286,756.993676208043,956.993676208043,800.942742169714,1000.94274216971,443.006323791957,643.006323791957,399.057257830286,599.057257830286,756.993676208043,0,0,0,0,0,0,4,0,NaN,NaN,horizontal,vertical,vertical,vertical,none,none
1c,19,100159,3,61,189,21,M,NA,variable,homogeneous,4,present,0.714287996292114,1,horizontal,horizontal,1,0.976480102539062,red,3,1,835.489140744817,347.4816424709,764.510859255183,852.518357529101,764.510859255183,852.518357529101,1052.5183575291,635.489140744817,835.489140744817,347.4816424709,547.481642470899,564.510859255183,0,0,0,0,0,0,4,0,NaN,NaN,vertical,vertical,horizontal,horizontal,none,none
1c,19,100159,3,62,190,21,M,NA,variable,homogeneous,6,absent,0.614962100982666,1,vertical,vertical,1,0.917655086517334,red,1,NaN,684.232422566416,827.206663668034,NaN,NaN,684.232422566416,827.206663668034,938.882953928832,813.860994826083,1054.65053136242,586.654331158049,915.767577433584,372.793336331966,661.117046071168,386.139005173917,545.349468637584,613.345668841951,4,0,0,0,0,0,vertical,horizontal,horizontal,vertical,horizontal,horizontal
1c,19,100159,3,63,191,21,M,NA,variable,homogeneous,3,present,1.02762794494629,1,vertical,vertical,1,0.611765003204346,green,1,3,653.738008730483,808.883771293693,692.232343256122,368.891514305654,653.738008730483,808.883771293693,1054.0296480134,622.224714400653,692.232343256122,368.891514305654,0,0,0,0,0,0,4,0,0,NaN,NaN,NaN,vertical,horizontal,vertical,none,none,none
1c,19,100159,3,64,192,21,M,NA,variable,homogeneous,6,present,0.645172834396362,1,vertical,vertical,1,0.835300064086914,green,5,1,572.793336331966,484.232422566416,813.345668841951,854.650531362416,813.345668841951,854.650531362416,1027.20666366803,715.767577433584,1013.86099482608,461.117046071168,786.654331158049,345.349468637584,572.793336331966,484.232422566416,586.139005173917,738.882953928832,0,0,0,0,4,0,vertical,horizontal,horizontal,vertical,vertical,horizontal
1c,19,100159,4,1,193,21,M,NA,variable,homogeneous,4,absent,0.504471063613892,1,vertical,vertical,1,0.941185092926025,red,3,NaN,878.799333565612,357.480588344736,NaN,NaN,721.200666434388,842.519411655264,1042.51941165526,678.799333565612,878.799333565612,357.480588344736,557.480588344736,521.200666434388,0,0,0,0,0,0,4,0,NaN,NaN,vertical,vertical,vertical,horizontal,none,none
1c,19,100159,4,2,194,21,M,NA,variable,homogeneous,3,absent,0.502151966094971,1,vertical,vertical,1,0.76471004486084,red,3,NaN,716.980120613425,358.892763222174,NaN,NaN,632.704947607421,792.450942956807,1050.31493177915,648.656293821019,716.980120613425,358.892763222174,0,0,0,0,0,0,0,0,4,NaN,NaN,NaN,horizontal,horizontal,vertical,none,none,none
1c,19,100159,4,3,195,21,M,NA,variable,homogeneous,3,absent,0.519901037216187,1,horizontal,horizontal,1,0.964715099334717,green,1,NaN,973.909581815937,786.495193912888,NaN,NaN,973.909581815937,786.495193912888,874.554784704298,356.142287229426,551.535633479765,657.362518857686,0,0,0,0,0,0,4,0,0,NaN,NaN,NaN,horizontal,vertical,vertical,none,none,none
1c,19,100159,4,4,196,21,M,NA,variable,homogeneous,6,present,0.53697395324707,1,horizontal,horizontal,1,0.941185092926025,green,5,2,561.936991243214,508.616172865948,1038.06300875679,691.383827134052,839.890788585259,851.86052685176,1038.06300875679,691.383827134052,998.172220171528,439.523300282291,760.109211414741,348.13947314824,561.936991243214,508.616172865948,601.827779828472,760.476699717708,0,0,0,0,4,0,vertical,vertical,horizontal,horizontal,horizontal,horizontal
1c,19,100159,4,5,197,21,M,NA,variable,homogeneous,4,present,0.564958095550537,1,horizontal,horizontal,1,0.647060012817383,red,4,1,591.116228706307,453.738008730483,653.738008730483,808.883771293693,653.738008730483,808.883771293693,1008.88377129369,746.261991269517,946.261991269517,391.116228706307,591.116228706307,453.738008730483,0,0,0,0,0,0,0,4,NaN,NaN,horizontal,vertical,vertical,horizontal,none,none
1c,19,100159,4,6,198,21,M,NA,variable,homogeneous,3,absent,0.525597810745239,1,vertical,vertical,1,0.870595073699951,red,2,NaN,853.017481158529,350.57236181288,NaN,NaN,989.501930496736,770.628304621509,853.017481158529,350.57236181288,557.480588344736,678.799333565612,0,0,0,0,0,0,0,4,0,NaN,NaN,NaN,horizontal,vertical,horizontal,none,none,none
1c,19,100159,4,7,199,21,M,NA,variable,homogeneous,3,absent,0.507578134536743,1,horizontal,horizontal,1,0.752945041656494,green,3,NaN,786.654331158049,345.349468637584,NaN,NaN,586.139005173917,738.882953928832,1027.20666366803,715.767577433584,786.654331158049,345.349468637584,0,0,0,0,0,0,0,0,4,NaN,NaN,NaN,vertical,horizontal,horizontal,none,none,none
1c,19,100159,4,8,200,21,M,NA,variable,homogeneous,3,present,0.595187187194824,1,vertical,vertical,1,0.658825016021728,red,1,2,591.116228706307,746.261991269517,1031.10848569435,707.767656743878,591.116228706307,746.261991269517,1031.10848569435,707.767656743878,777.775285599347,345.970351986605,0,0,0,0,0,0,4,0,0,NaN,NaN,NaN,vertical,horizontal,horizontal,none,none,none
1c,19,100159,4,9,201,21,M,NA,variable,homogeneous,6,present,0.46754002571106,1,vertical,vertical,1,0.823535060882568,red,4,3,764.510859255183,347.4816424709,1000.94274216971,443.006323791957,835.489140744817,852.518357529101,1036.43188291453,695.524681321058,1000.94274216971,443.006323791957,764.510859255183,347.4816424709,563.568117085469,504.475318678942,599.057257830286,756.993676208043,0,0,0,4,0,0,horizontal,horizontal,horizontal,vertical,vertical,horizontal
1c,19,100159,4,10,202,21,M,NA,variable,homogeneous,5,absent,0.536346912384033,1,horizontal,horizontal,1,0.964715099334717,green,2,NaN,973.909581815937,786.495193912888,NaN,NaN,676.373546837184,823.028025320546,973.909581815937,786.495193912888,1031.10848569435,492.232343256122,768.923317431687,346.900731331463,549.685068220846,551.343706178981,0,0,0,4,0,0,0,NaN,vertical,horizontal,horizontal,vertical,vertical,none
1c,19,100159,4,11,203,21,M,NA,variable,homogeneous,6,absent,0.548247098922729,1,vertical,vertical,1,1.04707012176514,green,2,NaN,995.341332995339,763.910840470068,NaN,NaN,755.719714694933,851.125977018113,995.341332995339,763.910840470068,1039.62161830041,512.784863451954,844.280285305067,348.874022981887,604.658667004661,436.089159529932,560.378381699593,687.215136548046,0,4,0,0,0,0,horizontal,vertical,horizontal,horizontal,vertical,vertical
1c,19,100159,4,12,204,21,M,NA,variable,homogeneous,6,present,0.499350070953369,1,horizontal,horizontal,1,0.6,green,4,3,907.767656743878,368.891514305654,1054.0296480134,577.775285599347,692.232343256122,831.108485694346,946.261991269517,808.883771293693,1054.0296480134,577.775285599347,907.767656743878,368.891514305654,653.738008730483,391.116228706307,545.970351986605,622.224714400653,0,0,0,4,0,0,horizontal,horizontal,horizontal,horizontal,horizontal,vertical
1c,19,100159,4,13,205,21,M,NA,variable,homogeneous,3,absent,0.530629873275757,1,horizontal,horizontal,1,0.870595073699951,red,3,NaN,708.616172865948,361.936991243214,NaN,NaN,639.523300282292,798.172220171528,1051.86052685176,639.890788585259,708.616172865948,361.936991243214,0,0,0,0,0,0,0,0,4,NaN,NaN,NaN,horizontal,vertical,horizontal,none,none,none
1c,19,100159,4,14,206,21,M,NA,variable,homogeneous,5,present,0.477029085159302,1,horizontal,horizontal,1,0.776475048065186,green,1,5,782.212099195248,854.378832816255,552.574589799621,661.690083377915,782.212099195248,854.378832816255,1036.43188291453,695.524681321058,963.910840470068,404.658667004661,664.870587620533,383.747735480111,552.574589799621,661.690083377915,0,0,4,0,0,0,0,NaN,horizontal,vertical,vertical,vertical,vertical,none
1c,19,100159,4,15,207,21,M,NA,variable,homogeneous,6,present,0.415817022323608,1,vertical,vertical,1,0.858830070495605,green,2,5,1025.15163617903,719.715248510402,574.848363820974,480.284751489598,808.899371659138,854.844660889869,1025.15163617903,719.715248510402,1016.25226451989,464.870587620533,791.100628340862,345.155339110131,574.848363820974,480.284751489598,583.747735480111,735.129412379467,0,4,0,0,0,0,vertical,vertical,vertical,horizontal,vertical,vertical
1c,19,100159,4,16,208,21,M,NA,variable,homogeneous,5,absent,0.530158042907715,1,vertical,vertical,1,1.09413013458252,red,5,NaN,565.271262369628,699.636437764765,NaN,NaN,822.224714400653,854.029648013395,1048.46436652023,657.362518857686,931.334709102064,381.422338320961,632.704947607421,407.549057043193,565.271262369628,699.636437764765,0,0,0,0,0,0,4,NaN,horizontal,horizontal,vertical,vertical,vertical,none
1c,19,100159,4,17,209,21,M,NA,variable,homogeneous,3,present,0.474437952041626,1,vertical,vertical,1,0.858830070495605,green,3,1,554.878267535729,670.287525733335,983.431649086356,777.137884467044,983.431649086356,777.137884467044,861.690083377915,352.574589799621,554.878267535729,670.287525733335,0,0,0,0,0,0,0,0,4,NaN,NaN,NaN,vertical,vertical,vertical,none,none,none
1c,19,100159,4,18,210,21,M,NA,variable,homogeneous,6,absent,0.593456983566284,1,horizontal,horizontal,1,0.870595073699951,green,4,NaN,800,345,NaN,NaN,800,855,1020.83647796503,727.5,1020.83647796503,472.5,800,345,579.163522034968,472.5,579.163522034968,727.5,0,0,0,4,0,0,vertical,vertical,vertical,horizontal,horizontal,horizontal
1c,19,100159,4,19,211,21,M,NA,variable,homogeneous,6,absent,0.553921937942505,0,vertical,horizontal,1,0.623530006408691,red,3,NaN,1031.10848569435,492.232343256122,NaN,NaN,777.775285599347,854.029648013395,1008.88377129369,746.261991269517,1031.10848569435,492.232343256122,822.224714400653,345.970351986605,591.116228706307,453.738008730483,568.891514305654,707.767656743878,0,0,4,0,0,0,horizontal,vertical,vertical,horizontal,horizontal,horizontal
1c,19,100159,4,20,212,21,M,NA,variable,homogeneous,6,absent,0.597249984741211,1,horizontal,horizontal,1,0.800005054473877,red,4,NaN,899.636437764765,365.271262369628,NaN,NaN,700.363562235235,834.728737630372,953.462830903772,803.65205506206,1053.09926866854,568.923317431687,899.636437764765,365.271262369628,646.537169096228,396.34794493794,546.900731331463,631.076682568313,0,0,0,4,0,0,vertical,horizontal,vertical,horizontal,horizontal,vertical
1c,19,100159,4,21,213,21,M,NA,variable,homogeneous,5,present,0.609925985336304,1,horizontal,horizontal,1,0.635295009613037,green,4,3,610.498069503264,429.371695378491,903.717843984329,367.045908301137,853.017481158529,849.42763818712,1053.60308331891,626.654758133252,903.717843984329,367.045908301137,610.498069503264,429.371695378491,579.163522034968,727.5,0,0,0,0,0,4,0,NaN,horizontal,vertical,horizontal,horizontal,horizontal,none
1c,19,100159,4,22,214,21,M,NA,variable,homogeneous,3,present,0.571872234344482,1,horizontal,horizontal,1,0.882360076904297,green,2,3,865.998856501143,353.688914296288,553.688914296288,665.998856501143,980.31222920257,780.31222920257,865.998856501143,353.688914296288,553.688914296288,665.998856501143,0,0,0,0,0,0,0,4,0,NaN,NaN,NaN,vertical,horizontal,vertical,none,none,none
1c,19,100159,4,23,215,21,M,NA,variable,homogeneous,3,present,0.842288017272949,1,horizontal,horizontal,1,0.92942008972168,red,2,1,1045.12173246427,529.712474266665,738.309916622085,847.425410200379,738.309916622085,847.425410200379,1045.12173246427,529.712474266665,616.568350913644,422.862115532956,0,0,0,0,0,0,0,4,0,NaN,NaN,NaN,horizontal,horizontal,vertical,none,none,none
1c,19,100159,4,24,216,21,M,NA,variable,homogeneous,6,present,0.490509033203125,1,horizontal,horizontal,1,0.976480102539062,red,5,2,556.142287229426,525.445215295702,1043.85771277057,674.554784704298,857.362518857686,848.464366520235,1043.85771277057,674.554784704298,986.495193912888,426.090418184063,742.637481142314,351.535633479765,556.142287229426,525.445215295702,613.504806087112,773.909581815937,0,0,0,0,4,0,vertical,horizontal,vertical,horizontal,horizontal,horizontal
1c,19,100159,4,25,217,21,M,NA,variable,homogeneous,4,present,0.579150915145874,1,vertical,vertical,1,0.729415035247803,red,2,4,1053.60308331891,573.345241866748,546.39691668109,626.654758133252,826.654758133252,853.60308331891,1053.60308331891,573.345241866748,773.345241866748,346.39691668109,546.39691668109,626.654758133252,0,0,0,0,0,4,0,0,NaN,NaN,vertical,vertical,vertical,vertical,none,none
1c,19,100159,4,26,218,21,M,NA,variable,homogeneous,6,absent,0.50699520111084,1,vertical,vertical,1,0.811770057678223,red,2,NaN,970.628304621509,789.501930496736,NaN,NaN,721.200666434388,842.519411655264,970.628304621509,789.501930496736,1049.42763818712,546.982518841471,878.799333565612,357.480588344736,629.371695378491,410.498069503264,550.57236181288,653.017481158529,0,4,0,0,0,0,horizontal,vertical,horizontal,horizontal,horizontal,vertical
1c,19,100159,4,27,219,21,M,NA,variable,homogeneous,4,absent,0.758035182952881,1,vertical,vertical,1,0.623530006408691,red,1,NaN,760.109211414741,851.86052685176,NaN,NaN,760.109211414741,851.86052685176,1051.86052685176,639.890788585259,839.890788585259,348.13947314824,548.13947314824,560.109211414741,0,0,0,0,4,0,0,0,NaN,NaN,vertical,vertical,horizontal,vertical,none,none
1c,19,100159,4,28,220,21,M,NA,variable,homogeneous,6,present,0.535356044769287,1,vertical,vertical,1,0.705885028839111,green,3,4,1052.5183575291,564.510859255183,895.524681321058,363.568117085469,704.475318678942,836.431882914531,956.993676208043,800.942742169714,1052.5183575291,564.510859255183,895.524681321058,363.568117085469,643.006323791957,399.057257830286,547.481642470899,635.489140744817,0,0,4,0,0,0,vertical,horizontal,vertical,horizontal,vertical,horizontal
1c,19,100159,4,29,221,21,M,NA,variable,homogeneous,3,present,0.729238033294678,1,horizontal,horizontal,1,0.752945041656494,green,3,1,800,345,579.163522034968,727.5,579.163522034968,727.5,1020.83647796503,727.5,800,345,0,0,0,0,0,0,0,0,4,NaN,NaN,NaN,horizontal,vertical,horizontal,none,none,none
1c,19,100159,4,30,222,21,M,NA,variable,homogeneous,5,absent,0.607903003692627,1,vertical,vertical,1,1.0117751121521,green,1,NaN,653.738008730483,808.883771293693,NaN,NaN,653.738008730483,808.883771293693,953.462830903772,803.65205506206,1041.10723677783,516.980120613425,795.549636358493,345.03883773512,556.142287229426,525.445215295702,0,0,4,0,0,0,0,NaN,vertical,horizontal,vertical,vertical,horizontal,none
1c,19,100159,4,31,223,21,M,NA,variable,homogeneous,6,absent,0.489831924438477,1,vertical,vertical,1,1.05883512496948,green,1,NaN,738.309916622085,847.425410200379,NaN,NaN,738.309916622085,847.425410200379,983.431649086356,777.137884467044,1045.12173246427,529.712474266665,861.690083377915,352.574589799621,616.568350913644,422.862115532956,554.878267535729,670.287525733335,4,0,0,0,0,0,vertical,horizontal,horizontal,horizontal,horizontal,vertical
1c,19,100159,4,32,224,21,M,NA,variable,homogeneous,4,present,0.593220949172974,1,horizontal,horizontal,1,1.08236513137817,green,4,3,545.155339110131,591.100628340862,808.899371659138,345.155339110131,791.100628340862,854.844660889869,1054.84466088987,608.899371659138,808.899371659138,345.155339110131,545.155339110131,591.100628340862,0,0,0,0,0,0,0,4,NaN,NaN,horizontal,horizontal,horizontal,horizontal,none,none
1c,19,100159,4,33,225,21,M,NA,variable,homogeneous,3,absent,0.693844079971313,1,horizontal,horizontal,1,0.835300064086914,red,1,NaN,619.68777079743,780.31222920257,NaN,NaN,619.68777079743,780.31222920257,1046.31108570371,665.998856501143,734.001143498857,353.688914296288,0,0,0,0,0,0,4,0,0,NaN,NaN,NaN,horizontal,horizontal,vertical,none,none,none
1c,19,100159,4,34,226,21,M,NA,variable,homogeneous,5,present,0.657972097396851,1,vertical,vertical,1,0.882360076904297,red,5,2,629.371695378491,789.501930496736,1049.42763818712,546.982518841471,927.5,820.836477965032,1049.42763818712,546.982518841471,826.654758133252,346.39691668109,567.045908301137,496.282156015671,629.371695378491,789.501930496736,0,0,0,0,0,0,4,NaN,vertical,vertical,horizontal,vertical,vertical,none
1c,19,100159,4,35,227,21,M,NA,variable,homogeneous,4,present,0.765249967575073,1,vertical,vertical,1,0.694120025634766,red,1,2,942.594190385041,811.404581001536,1011.40458100154,457.40580961496,942.594190385041,811.404581001536,1011.40458100154,457.40580961496,657.405809614959,388.595418998464,588.595418998464,742.594190385041,0,0,0,0,4,0,0,0,NaN,NaN,vertical,vertical,horizontal,horizontal,none,none
1c,19,100159,4,36,228,21,M,NA,variable,homogeneous,4,present,0.518121957778931,1,vertical,vertical,1,0.670590019226074,green,2,4,1011.40458100154,457.40580961496,588.595418998464,742.594190385041,942.594190385041,811.404581001536,1011.40458100154,457.40580961496,657.405809614959,388.595418998464,588.595418998464,742.594190385041,0,0,0,0,0,4,0,0,NaN,NaN,vertical,vertical,horizontal,vertical,none,none
1c,19,100159,4,37,229,21,M,NA,variable,homogeneous,6,present,0.570873975753784,1,horizontal,horizontal,1,0.905890083312988,red,4,2,887.215136548046,360.378381699593,963.910840470068,795.341332995339,712.784863451954,839.621618300407,963.910840470068,795.341332995339,1051.12597701811,555.719714694933,887.215136548046,360.378381699593,636.089159529932,404.658667004661,548.874022981887,644.280285305067,0,0,0,4,0,0,vertical,horizontal,horizontal,horizontal,horizontal,horizontal
1c,19,100159,4,38,230,21,M,NA,variable,homogeneous,6,present,0.516196012496948,1,vertical,vertical,1,0.694120025634766,red,2,6,931.334709102064,818.577661679039,545.03883773512,604.450363641507,676.373546837184,823.028025320546,931.334709102064,818.577661679039,1054.96116226488,595.549636358493,923.626453162816,376.971974679454,668.665290897936,381.422338320961,545.03883773512,604.450363641507,0,4,0,0,0,0,vertical,vertical,horizontal,vertical,horizontal,horizontal
1c,19,100159,4,39,231,21,M,NA,variable,homogeneous,5,present,0.469603061676025,1,horizontal,horizontal,1,0.952950096130371,red,3,1,931.334709102064,381.422338320961,822.224714400653,854.029648013395,822.224714400653,854.029648013395,1048.46436652023,657.362518857686,931.334709102064,381.422338320961,632.704947607421,407.549057043193,565.271262369628,699.636437764765,0,0,0,0,4,0,0,NaN,horizontal,horizontal,horizontal,horizontal,vertical,none
1c,19,100159,4,40,232,21,M,NA,variable,homogeneous,4,absent,0.73565411567688,1,horizontal,horizontal,1,0.611765003204346,green,1,NaN,831.076682568313,853.099268668537,NaN,NaN,831.076682568313,853.099268668537,1053.09926866854,568.923317431687,768.923317431687,346.900731331463,546.900731331463,631.076682568313,0,0,0,0,4,0,0,0,NaN,NaN,horizontal,horizontal,vertical,vertical,none,none
1c,19,100159,4,41,233,21,M,NA,variable,homogeneous,3,absent,0.549712181091309,1,vertical,vertical,1,0.964715099334717,green,1,NaN,782.212099195248,854.378832816255,NaN,NaN,782.212099195248,854.378832816255,1029.19248180629,488.215357568785,588.595418998464,457.40580961496,0,0,0,0,0,0,4,0,0,NaN,NaN,NaN,vertical,horizontal,horizontal,none,none,none
1c,19,100159,4,42,234,21,M,NA,variable,homogeneous,6,absent,0.541330099105835,1,horizontal,horizontal,1,1.02354011535645,green,2,NaN,1016.25226451989,735.129412379467,NaN,NaN,791.100628340862,854.844660889869,1016.25226451989,735.129412379467,1025.15163617903,480.284751489598,808.899371659138,345.155339110131,583.747735480111,464.870587620533,574.848363820974,719.715248510402,0,4,0,0,0,0,vertical,horizontal,horizontal,horizontal,vertical,vertical
1c,19,100159,4,43,235,21,M,NA,variable,homogeneous,3,present,0.496670961380005,0,vertical,horizontal,1,0.611765003204346,red,3,1,570.807518193712,711.784642431215,1011.40458100154,742.594190385041,1011.40458100154,742.594190385041,817.787900804752,345.621167183745,570.807518193712,711.784642431215,0,0,0,0,0,0,0,0,4,NaN,NaN,NaN,vertical,vertical,vertical,none,none,none
1c,19,100159,4,44,236,21,M,NA,variable,homogeneous,5,absent,0.53543496131897,1,horizontal,horizontal,1,0.84706506729126,green,1,NaN,813.345668841951,854.650531362416,NaN,NaN,813.345668841951,854.650531362416,1046.31108570371,665.998856501143,938.882953928832,386.139005173917,639.523300282292,401.827779828472,561.936991243214,691.383827134052,0,0,4,0,0,0,0,NaN,horizontal,horizontal,horizontal,horizontal,vertical,none
1c,19,100159,4,45,237,21,M,NA,variable,homogeneous,5,present,0.528625965118408,1,horizontal,horizontal,1,0.905890083312988,red,3,5,887.215136548046,360.378381699593,588.595418998464,742.594190385041,870.287525733335,845.121732464271,1054.84466088987,608.899371659138,887.215136548046,360.378381699593,599.057257830286,443.006323791957,588.595418998464,742.594190385041,0,0,0,0,4,0,0,NaN,horizontal,horizontal,horizontal,horizontal,vertical,none
1c,19,100159,4,46,238,21,M,NA,variable,homogeneous,4,present,0.527729034423828,1,horizontal,horizontal,1,0.611765003204346,green,3,2,919.715248510402,374.848363820974,1025.15163617903,719.715248510402,680.284751489598,825.151636179026,1025.15163617903,719.715248510402,919.715248510402,374.848363820974,574.848363820974,480.284751489598,0,0,0,0,0,0,4,0,NaN,NaN,horizontal,vertical,horizontal,horizontal,none,none
1c,19,100159,4,47,239,21,M,NA,variable,homogeneous,3,present,0.905966997146606,1,vertical,vertical,1,0.788240051269531,green,3,1,568.891514305654,492.232343256122,822.224714400653,854.029648013395,822.224714400653,854.029648013395,1008.88377129369,453.738008730483,568.891514305654,492.232343256122,0,0,0,0,0,0,0,0,4,NaN,NaN,NaN,horizontal,vertical,vertical,none,none,none
1c,19,100159,4,48,240,21,M,NA,variable,homogeneous,3,present,0.508460998535156,1,horizontal,horizontal,1,1.00001010894775,red,1,3,795.549636358493,854.96116226488,581.422338320961,468.665290897936,795.549636358493,854.96116226488,1023.02802532055,476.373546837184,581.422338320961,468.665290897936,0,0,0,0,0,0,4,0,0,NaN,NaN,NaN,horizontal,horizontal,vertical,none,none,none
1c,19,100159,4,49,241,21,M,NA,variable,homogeneous,5,absent,0.519294023513794,1,horizontal,horizontal,1,1.02354011535645,red,2,NaN,1038.06300875679,691.383827134052,NaN,NaN,786.654331158049,854.650531362416,1038.06300875679,691.383827134052,960.476699717708,401.827779828472,661.117046071168,386.139005173917,553.688914296288,665.998856501143,0,0,0,4,0,0,0,NaN,vertical,horizontal,vertical,vertical,horizontal,none
1c,19,100159,4,50,242,21,M,NA,variable,homogeneous,5,present,0.532145023345947,1,vertical,vertical,1,0.705885028839111,red,2,1,973.909581815937,786.495193912888,676.373546837184,823.028025320546,676.373546837184,823.028025320546,973.909581815937,786.495193912888,1031.10848569435,492.232343256122,768.923317431687,346.900731331463,549.685068220846,551.343706178981,0,0,0,4,0,0,0,NaN,vertical,vertical,horizontal,horizontal,vertical,none
1c,19,100159,4,51,243,21,M,NA,variable,homogeneous,5,present,0.604149103164673,1,vertical,vertical,1,0.858830070495605,green,2,5,1011.40458100154,742.594190385041,545.155339110131,608.899371659138,729.712474266665,845.121732464271,1011.40458100154,742.594190385041,1000.94274216971,443.006323791957,712.784863451954,360.378381699593,545.155339110131,608.899371659138,0,0,0,4,0,0,0,NaN,vertical,vertical,vertical,vertical,vertical,none
1c,19,100159,4,52,244,21,M,NA,variable,homogeneous,5,present,0.545346021652222,1,vertical,vertical,1,1.04707012176514,green,5,1,557.480588344736,521.200666434388,650.114760665419,806.299333565612,650.114760665419,806.299333565612,949.885239334581,806.299333565612,1042.51941165526,521.200666434388,800,345,557.480588344736,521.200666434388,0,0,0,0,0,0,4,NaN,horizontal,horizontal,horizontal,horizontal,vertical,none
