experiment,subject,uniqueID,block,trial,trial_cumulative,age,gender,color_cond_blocking,color_history,shape_type,set_size,distractor,rt,acc,target_orient,response_key,response_made,iti,target_color,target_item,distractor_item,target_X,target_Y,distractor_X,distractor_Y,item1_X,item1_Y,item2_X,item2_Y,item3_X,item3_Y,item4_X,item4_Y,item5_X,item5_Y,item6_X,item6_Y,item1_shape,item2_shape,item3_shape,item4_shape,item5_shape,item6_shape,item1_line,item2_line,item3_line,item4_line,item5_line,item6_line
1c,1,100139,1,1,1,19,F,NA,variable,homogeneous,3,absent,1.22350406646729,1,horizontal,horizontal,1,0.917644143104553,green,3,NaN,557.480588344736,521.200666434388,NaN,NaN,853.017481158529,849.42763818712,989.501930496736,429.371695378491,557.480588344736,521.200666434388,0,0,0,0,0,0,0,0,4,NaN,NaN,NaN,horizontal,horizontal,horizontal,none,none,none
1c,1,100139,1,2,2,19,F,NA,variable,homogeneous,5,present,NaN,0,horizontal,none,0,1.08234851360321,green,1,4,915.767577433584,827.206663668034,572.793336331966,484.232422566416,915.767577433584,827.206663668034,1051.86052685176,560.109211414741,839.890788585259,348.13947314824,572.793336331966,484.232422566416,619.68777079743,780.31222920257,0,0,4,0,0,0,0,NaN,horizontal,horizontal,horizontal,horizontal,vertical,none
1c,1,100139,1,3,3,19,F,NA,variable,homogeneous,5,present,NaN,0,vertical,none,0,0.729410576820374,red,5,4,579.163522034968,727.5,610.498069503264,429.371695378491,853.017481158529,849.42763818712,1053.60308331891,626.654758133252,903.717843984329,367.045908301137,610.498069503264,429.371695378491,579.163522034968,727.5,0,0,0,0,0,0,4,NaN,horizontal,vertical,vertical,vertical,vertical,none
1c,1,100139,1,4,4,19,F,NA,variable,homogeneous,3,absent,NaN,0,horizontal,none,0,1.01176092624664,green,1,NaN,1003.65205506206,753.462830903772,NaN,NaN,1003.65205506206,753.462830903772,831.076682568313,346.900731331463,565.271262369628,699.636437764765,0,0,0,0,0,0,4,0,0,NaN,NaN,NaN,horizontal,vertical,vertical,none,none,none
1c,1,100139,1,5,5,19,F,NA,variable,homogeneous,3,present,0.843133926391602,1,vertical,vertical,1,0.894114947319031,green,3,1,547.481642470899,635.489140744817,956.993676208043,800.942742169714,956.993676208043,800.942742169714,895.524681321058,363.568117085469,547.481642470899,635.489140744817,0,0,0,0,0,0,0,0,4,NaN,NaN,NaN,vertical,horizontal,vertical,none,none,none
1c,1,100139,1,6,6,19,F,NA,variable,homogeneous,6,present,0.912777900695801,1,horizontal,horizontal,1,1.03529012203217,red,2,1,1049.42763818712,653.017481158529,878.799333565612,842.519411655264,878.799333565612,842.519411655264,1049.42763818712,653.017481158529,970.628304621509,410.498069503264,721.200666434388,357.480588344736,550.57236181288,546.982518841471,629.371695378491,789.501930496736,0,4,0,0,0,0,horizontal,horizontal,vertical,horizontal,horizontal,vertical
1c,1,100139,1,7,7,19,F,NA,variable,homogeneous,3,absent,0.969194889068604,1,horizontal,horizontal,1,0.705881381034851,red,1,NaN,808.899371659138,854.844660889869,NaN,NaN,808.899371659138,854.844660889869,1016.25226451989,464.870587620533,574.848363820974,480.284751489598,0,0,0,0,0,0,4,0,0,NaN,NaN,NaN,horizontal,vertical,horizontal,none,none,none
1c,1,100139,1,8,8,19,F,NA,variable,homogeneous,3,present,0.846374988555908,1,vertical,vertical,1,1.08234851360321,red,2,1,1054.0296480134,622.224714400653,653.738008730483,808.883771293693,653.738008730483,808.883771293693,1054.0296480134,622.224714400653,692.232343256122,368.891514305654,0,0,0,0,0,0,0,4,0,NaN,NaN,NaN,vertical,vertical,vertical,none,none,none
1c,1,100139,1,9,9,19,F,NA,variable,homogeneous,5,present,1.10737895965576,1,horizontal,horizontal,1,0.976467132568359,red,2,3,953.462830903772,803.65205506206,1041.10723677783,516.980120613425,653.738008730483,808.883771293693,953.462830903772,803.65205506206,1041.10723677783,516.980120613425,795.549636358493,345.03883773512,556.142287229426,525.445215295702,0,0,0,4,0,0,0,NaN,vertical,horizontal,horizontal,vertical,vertical,none
1c,1,100139,1,10,10,19,F,NA,variable,homogeneous,5,absent,0.835178852081299,0,horizontal,vertical,1,0.88235034942627,red,4,NaN,622.862115532956,416.568350913644,NaN,NaN,835.489140744817,852.518357529101,1051.12597701811,644.280285305067,919.715248510402,374.848363820974,622.862115532956,416.568350913644,570.807518193712,711.784642431215,0,0,0,0,0,4,0,NaN,horizontal,horizontal,horizontal,horizontal,horizontal,none
1c,1,100139,1,11,11,19,F,NA,variable,homogeneous,3,absent,1.12848401069641,1,vertical,vertical,1,0.811762762069702,green,3,NaN,548.13947314824,560.109211414741,NaN,NaN,891.383827134052,838.063008756786,960.476699717708,401.827779828472,548.13947314824,560.109211414741,0,0,0,0,0,0,0,0,4,NaN,NaN,NaN,horizontal,horizontal,vertical,none,none,none
1c,1,100139,1,12,12,19,F,NA,variable,homogeneous,4,absent,0.838512182235718,1,vertical,vertical,1,0.764704370498657,green,2,NaN,1046.31108570371,534.001143498857,NaN,NaN,865.998856501143,846.311085703712,1046.31108570371,534.001143498857,734.001143498857,353.688914296288,553.688914296288,665.998856501143,0,0,0,0,0,4,0,0,NaN,NaN,vertical,vertical,vertical,horizontal,none,none
1c,1,100139,1,13,13,19,F,NA,variable,homogeneous,4,present,0.936122894287109,1,horizontal,horizontal,1,1.0235255241394,red,2,4,1011.40458100154,457.40580961496,588.595418998464,742.594190385041,942.594190385041,811.404581001536,1011.40458100154,457.40580961496,657.405809614959,388.595418998464,588.595418998464,742.594190385041,0,0,0,0,0,4,0,0,NaN,NaN,vertical,horizontal,horizontal,vertical,none,none
1c,1,100139,1,14,14,19,F,NA,variable,homogeneous,4,present,0.947780132293701,1,horizontal,horizontal,1,0.647058391571045,red,2,1,1053.09926866854,568.923317431687,831.076682568313,853.099268668537,831.076682568313,853.099268668537,1053.09926866854,568.923317431687,768.923317431687,346.900731331463,546.900731331463,631.076682568313,0,0,0,0,0,4,0,0,NaN,NaN,vertical,horizontal,vertical,vertical,none,none
1c,1,100139,1,15,15,19,F,NA,variable,homogeneous,6,absent,1.46499490737915,1,horizontal,horizontal,1,0.705881381034851,red,6,NaN,545.621167183745,617.787900804752,NaN,NaN,688.215357568785,829.192481806288,942.594190385041,811.404581001536,1054.37883281626,582.212099195248,911.784642431215,370.807518193712,657.405809614959,388.595418998464,545.621167183745,617.787900804752,0,0,0,0,0,4,horizontal,vertical,vertical,vertical,vertical,horizontal
1c,1,100139,1,16,16,19,F,NA,variable,homogeneous,5,absent,1.32351398468018,1,horizontal,horizontal,1,0.847056555747986,green,4,NaN,684.232422566416,372.793336331966,NaN,NaN,760.109211414741,851.86052685176,1027.20666366803,715.767577433584,980.31222920257,419.68777079743,684.232422566416,372.793336331966,548.13947314824,639.890788585259,0,0,0,0,0,4,0,NaN,horizontal,vertical,vertical,horizontal,horizontal,none
1c,1,100139,1,17,17,19,F,NA,variable,homogeneous,5,present,1.12871909141541,1,horizontal,horizontal,1,0.929408740997314,green,4,1,586.139005173917,461.117046071168,891.383827134052,838.063008756786,891.383827134052,838.063008756786,1054.65053136242,586.654331158049,865.998856501143,353.688914296288,586.139005173917,461.117046071168,601.827779828472,760.476699717708,0,0,0,0,0,4,0,NaN,horizontal,vertical,horizontal,horizontal,horizontal,none
1c,1,100139,1,18,18,19,F,NA,variable,homogeneous,6,absent,0.94004487991333,1,horizontal,horizontal,1,0.823527359962463,green,5,NaN,551.535633479765,542.637481142314,NaN,NaN,874.554784704298,843.857712770574,1048.46436652023,657.362518857686,973.909581815937,413.504806087112,725.445215295702,356.142287229426,551.535633479765,542.637481142314,626.090418184063,786.495193912888,0,0,0,0,4,0,horizontal,horizontal,horizontal,vertical,horizontal,vertical
1c,1,100139,1,19,19,19,F,NA,variable,homogeneous,5,present,0.800925970077515,1,vertical,vertical,1,0.88235034942627,green,2,4,1054.65053136242,613.345668841951,601.827779828472,439.523300282291,865.998856501143,846.311085703712,1054.65053136242,613.345668841951,891.383827134052,361.936991243214,601.827779828472,439.523300282291,586.139005173917,738.882953928832,0,0,0,4,0,0,0,NaN,horizontal,vertical,vertical,horizontal,vertical,none
1c,1,100139,1,20,20,19,F,NA,variable,homogeneous,5,present,1.83193206787109,1,vertical,vertical,1,0.941173338890076,red,5,3,591.116228706307,746.261991269517,883.019879386575,358.892763222174,874.554784704298,843.857712770574,1054.96116226488,604.450363641507,883.019879386575,358.892763222174,596.34794493794,446.537169096228,591.116228706307,746.261991269517,0,0,0,0,0,0,4,NaN,vertical,vertical,horizontal,vertical,vertical,none
1c,1,100139,1,21,21,19,F,NA,variable,homogeneous,4,absent,1.22114610671997,1,vertical,vertical,1,0.823527359962463,red,2,NaN,1047.42541020038,661.690083377915,NaN,NaN,738.309916622085,847.425410200379,1047.42541020038,661.690083377915,861.690083377915,352.574589799621,552.574589799621,538.309916622085,0,0,0,0,0,4,0,0,NaN,NaN,horizontal,vertical,vertical,vertical,none,none
1c,1,100139,1,22,22,19,F,NA,variable,homogeneous,6,present,0.678081035614014,1,vertical,vertical,1,0.823527359962463,red,4,5,704.475318678942,363.568117085469,547.481642470899,564.510859255183,895.524681321058,836.431882914531,1052.5183575291,635.489140744817,956.993676208043,399.057257830286,704.475318678942,363.568117085469,547.481642470899,564.510859255183,643.006323791957,800.942742169714,0,0,0,4,0,0,vertical,horizontal,horizontal,vertical,vertical,vertical
1c,1,100139,1,23,23,19,F,NA,variable,homogeneous,6,present,0.892256021499634,1,vertical,vertical,1,0.623529195785522,green,2,4,1041.10723677783,683.019879386575,751.343706178981,349.685068220846,848.656293821019,850.314931779154,1041.10723677783,683.019879386575,992.450942956807,432.704947607421,751.343706178981,349.685068220846,558.892763222174,516.980120613425,607.549057043193,767.295052392579,0,4,0,0,0,0,vertical,vertical,horizontal,vertical,horizontal,horizontal
1c,1,100139,1,24,24,19,F,NA,variable,homogeneous,3,absent,0.686824083328247,1,vertical,vertical,1,0.623529195785522,green,1,NaN,755.719714694933,851.125977018113,NaN,NaN,755.719714694933,851.125977018113,1039.62161830041,512.784863451954,604.658667004661,436.089159529932,0,0,0,0,0,0,4,0,0,NaN,NaN,NaN,vertical,horizontal,horizontal,none,none,none
1c,1,100139,1,25,25,19,F,NA,variable,homogeneous,6,present,0.822128057479858,1,horizontal,horizontal,1,0.88235034942627,red,5,4,552.574589799621,538.309916622085,729.712474266665,354.878267535729,870.287525733335,845.121732464271,1047.42541020038,661.690083377915,977.137884467044,416.568350913644,729.712474266665,354.878267535729,552.574589799621,538.309916622085,622.862115532956,783.431649086356,0,0,0,0,4,0,vertical,horizontal,horizontal,horizontal,horizontal,vertical
1c,1,100139,1,26,26,19,F,NA,variable,homogeneous,3,present,1.23254990577698,1,horizontal,horizontal,1,0.88235034942627,red,2,1,942.594190385041,388.595418998464,911.784642431215,829.192481806288,911.784642431215,829.192481806288,942.594190385041,388.595418998464,545.621167183745,582.212099195248,0,0,0,0,0,0,0,4,0,NaN,NaN,NaN,horizontal,horizontal,horizontal,none,none,none
1c,1,100139,1,27,27,19,F,NA,variable,homogeneous,3,present,0.957418918609619,1,horizontal,horizontal,1,0.799998164176941,green,2,3,1018.57766167904,468.665290897936,576.971974679454,476.373546837184,804.450363641507,854.96116226488,1018.57766167904,468.665290897936,576.971974679454,476.373546837184,0,0,0,0,0,0,0,4,0,NaN,NaN,NaN,horizontal,horizontal,horizontal,none,none,none
1c,1,100139,1,28,28,19,F,NA,variable,homogeneous,3,absent,0.64275598526001,1,horizontal,horizontal,1,1.09411311149597,red,2,NaN,844.280285305067,348.874022981887,NaN,NaN,995.341332995339,763.910840470068,844.280285305067,348.874022981887,560.378381699593,687.215136548046,0,0,0,0,0,0,0,4,0,NaN,NaN,NaN,horizontal,horizontal,vertical,none,none,none
1c,1,100139,1,29,29,19,F,NA,variable,homogeneous,5,absent,0.645335912704468,1,vertical,vertical,1,1.09411311149597,red,3,NaN,1032.95409169886,496.282156015671,NaN,NaN,672.5,820.836477965032,970.628304621509,789.501930496736,1032.95409169886,496.282156015671,773.345241866748,346.39691668109,550.57236181288,546.982518841471,0,0,0,0,4,0,0,NaN,vertical,vertical,vertical,vertical,vertical,none
1c,1,100139,1,30,30,19,F,NA,variable,homogeneous,4,present,0.863426923751831,1,vertical,vertical,1,0.847056555747986,green,4,1,601.827779828472,439.523300282291,639.523300282292,798.172220171528,639.523300282292,798.172220171528,998.172220171528,760.476699717708,960.476699717708,401.827779828472,601.827779828472,439.523300282291,0,0,0,0,0,0,0,4,NaN,NaN,vertical,horizontal,vertical,vertical,none,none
1c,1,100139,1,31,31,19,F,NA,variable,homogeneous,4,absent,0.747705936431885,1,horizontal,horizontal,1,0.941173338890076,green,2,NaN,998.172220171528,439.523300282291,NaN,NaN,960.476699717708,798.172220171528,998.172220171528,439.523300282291,639.523300282292,401.827779828472,601.827779828472,760.476699717708,0,0,0,0,0,4,0,0,NaN,NaN,horizontal,horizontal,horizontal,horizontal,none,none
1c,1,100139,1,32,32,19,F,NA,variable,homogeneous,4,present,1.07874298095703,1,vertical,vertical,1,1.01176092624664,red,1,4,684.232422566416,827.206663668034,572.793336331966,484.232422566416,684.232422566416,827.206663668034,1027.20666366803,715.767577433584,915.767577433584,372.793336331966,572.793336331966,484.232422566416,0,0,0,0,4,0,0,0,NaN,NaN,vertical,vertical,vertical,vertical,none,none
1c,1,100139,1,33,33,19,F,NA,variable,homogeneous,6,absent,1.19433999061584,1,vertical,vertical,1,0.88235034942627,red,6,NaN,599.057257830286,756.993676208043,NaN,NaN,835.489140744817,852.518357529101,1036.43188291453,695.524681321058,1000.94274216971,443.006323791957,764.510859255183,347.4816424709,563.568117085469,504.475318678942,599.057257830286,756.993676208043,0,0,0,0,0,4,horizontal,horizontal,horizontal,vertical,vertical,vertical
1c,1,100139,1,34,34,19,F,NA,variable,homogeneous,6,present,0.859820127487183,1,vertical,vertical,1,0.670587587356567,red,3,1,1053.09926866854,568.923317431687,700.363562235235,834.728737630372,700.363562235235,834.728737630372,953.462830903772,803.65205506206,1053.09926866854,568.923317431687,899.636437764765,365.271262369628,646.537169096228,396.34794493794,546.900731331463,631.076682568313,0,0,4,0,0,0,vertical,vertical,vertical,horizontal,horizontal,horizontal
1c,1,100139,1,35,35,19,F,NA,variable,homogeneous,6,absent,1.22964596748352,1,horizontal,horizontal,1,0.823527359962463,green,2,NaN,1041.10723677783,683.019879386575,NaN,NaN,848.656293821019,850.314931779154,1041.10723677783,683.019879386575,992.450942956807,432.704947607421,751.343706178981,349.685068220846,558.892763222174,516.980120613425,607.549057043193,767.295052392579,0,4,0,0,0,0,vertical,horizontal,vertical,vertical,vertical,vertical
1c,1,100139,1,36,36,19,F,NA,variable,homogeneous,6,present,1.18382787704468,1,horizontal,horizontal,1,1.08234851360321,green,4,2,755.719714694933,348.874022981887,1039.62161830041,687.215136548046,844.280285305067,851.125977018113,1039.62161830041,687.215136548046,995.341332995339,436.089159529932,755.719714694933,348.874022981887,560.378381699593,512.784863451954,604.658667004661,763.910840470068,0,0,0,4,0,0,horizontal,horizontal,horizontal,horizontal,horizontal,horizontal
1c,1,100139,1,37,37,19,F,NA,variable,homogeneous,6,absent,0.860087156295776,1,vertical,vertical,1,0.799998164176941,red,1,NaN,808.899371659138,854.844660889869,NaN,NaN,808.899371659138,854.844660889869,1025.15163617903,719.715248510402,1016.25226451989,464.870587620533,791.100628340862,345.155339110131,574.848363820974,480.284751489598,583.747735480111,735.129412379467,4,0,0,0,0,0,vertical,horizontal,vertical,vertical,vertical,horizontal
1c,1,100139,1,38,38,19,F,NA,variable,homogeneous,3,present,0.657847881317139,1,horizontal,horizontal,1,0.835291957855225,green,2,1,949.885239334581,393.700666434388,903.717843984329,832.954091698863,903.717843984329,832.954091698863,949.885239334581,393.700666434388,546.39691668109,573.345241866748,0,0,0,0,0,0,0,4,0,NaN,NaN,NaN,horizontal,horizontal,horizontal,none,none,none
1c,1,100139,1,39,39,19,F,NA,variable,homogeneous,3,present,0.754233121871948,1,horizontal,horizontal,1,0.929408740997314,red,2,1,1052.5183575291,564.510859255183,704.475318678942,836.431882914531,704.475318678942,836.431882914531,1052.5183575291,564.510859255183,643.006323791957,399.057257830286,0,0,0,0,0,0,0,4,0,NaN,NaN,NaN,vertical,horizontal,vertical,none,none,none
1c,1,100139,1,40,40,19,F,NA,variable,homogeneous,3,absent,0.671510219573975,1,vertical,vertical,1,0.69411678314209,red,1,NaN,1018.57766167904,731.334709102064,NaN,NaN,1018.57766167904,731.334709102064,804.450363641507,345.03883773512,576.971974679454,723.626453162816,0,0,0,0,0,0,4,0,0,NaN,NaN,NaN,vertical,horizontal,vertical,none,none,none
1c,1,100139,1,41,41,19,F,NA,variable,homogeneous,3,present,0.796972990036011,1,vertical,vertical,1,0.999996328353882,red,2,1,1036.43188291453,695.524681321058,599.057257830286,756.993676208043,599.057257830286,756.993676208043,1036.43188291453,695.524681321058,764.510859255183,347.4816424709,0,0,0,0,0,0,0,4,0,NaN,NaN,NaN,vertical,vertical,horizontal,none,none,none
1c,1,100139,1,42,42,19,F,NA,variable,homogeneous,4,absent,1.37120699882507,1,vertical,vertical,1,0.705881381034851,green,2,NaN,1000.94274216971,443.006323791957,NaN,NaN,956.993676208043,800.942742169714,1000.94274216971,443.006323791957,643.006323791957,399.057257830286,599.057257830286,756.993676208043,0,0,0,0,0,4,0,0,NaN,NaN,vertical,vertical,vertical,horizontal,none,none
1c,1,100139,1,43,43,19,F,NA,variable,homogeneous,4,absent,0.894124984741211,1,horizontal,horizontal,1,0.764704370498657,red,3,NaN,661.117046071168,386.139005173917,NaN,NaN,938.882953928832,813.860994826083,1013.86099482608,461.117046071168,661.117046071168,386.139005173917,586.139005173917,738.882953928832,0,0,0,0,0,0,4,0,NaN,NaN,vertical,horizontal,horizontal,vertical,none,none
1c,1,100139,1,44,44,19,F,NA,variable,homogeneous,6,present,1.13757801055908,1,vertical,vertical,1,0.88235034942627,green,6,5,551.535633479765,657.362518857686,626.090418184063,413.504806087112,725.445215295702,843.857712770574,973.909581815937,786.495193912888,1048.46436652023,542.637481142314,874.554784704298,356.142287229426,626.090418184063,413.504806087112,551.535633479765,657.362518857686,0,0,0,0,0,4,vertical,vertical,horizontal,vertical,vertical,vertical
1c,1,100139,1,45,45,19,F,NA,variable,homogeneous,4,absent,0.688090085983276,1,vertical,vertical,1,0.764704370498657,red,3,NaN,980.31222920257,419.68777079743,NaN,NaN,619.68777079743,780.31222920257,980.31222920257,780.31222920257,980.31222920257,419.68777079743,619.68777079743,419.68777079743,0,0,0,0,0,0,4,0,NaN,NaN,vertical,horizontal,vertical,vertical,none,none
1c,1,100139,1,46,46,19,F,NA,variable,homogeneous,4,present,0.742687940597534,1,horizontal,horizontal,1,0.835291957855225,green,4,1,548.874022981887,555.719714694933,755.719714694933,851.125977018113,755.719714694933,851.125977018113,1051.12597701811,644.280285305067,844.280285305067,348.874022981887,548.874022981887,555.719714694933,0,0,0,0,0,0,0,4,NaN,NaN,vertical,horizontal,vertical,horizontal,none,none
1c,1,100139,1,47,47,19,F,NA,variable,homogeneous,4,absent,1.08207607269287,1,horizontal,horizontal,1,0.811762762069702,red,1,NaN,804.450363641507,854.96116226488,NaN,NaN,804.450363641507,854.96116226488,1054.96116226488,595.549636358493,795.549636358493,345.03883773512,545.03883773512,604.450363641507,0,0,0,0,4,0,0,0,NaN,NaN,horizontal,vertical,horizontal,vertical,none,none
1c,1,100139,1,48,48,19,F,NA,variable,homogeneous,6,present,1.6278600692749,0,horizontal,vertical,1,0.999996328353882,green,4,5,861.690083377915,352.574589799621,616.568350913644,422.862115532956,738.309916622085,847.425410200379,983.431649086356,777.137884467044,1045.12173246427,529.712474266665,861.690083377915,352.574589799621,616.568350913644,422.862115532956,554.878267535729,670.287525733335,0,0,0,4,0,0,horizontal,vertical,horizontal,horizontal,horizontal,vertical
1c,1,100139,1,49,49,19,F,NA,variable,homogeneous,5,absent,0.734525203704834,1,horizontal,horizontal,1,0.682352185249329,green,4,NaN,636.089159529932,404.658667004661,NaN,NaN,817.787900804752,854.378832816255,1047.42541020038,661.690083377915,935.129412379467,383.747735480111,636.089159529932,404.658667004661,563.568117085469,695.524681321058,0,0,0,0,0,4,0,NaN,vertical,horizontal,horizontal,horizontal,horizontal,none
1c,1,100139,1,50,50,19,F,NA,variable,homogeneous,3,present,0.789971828460693,1,vertical,vertical,1,0.835291957855225,green,3,1,546.900731331463,568.923317431687,899.636437764765,834.728737630372,899.636437764765,834.728737630372,953.462830903772,396.34794493794,546.900731331463,568.923317431687,0,0,0,0,0,0,0,0,4,NaN,NaN,NaN,vertical,vertical,vertical,none,none,none
1c,1,100139,1,51,51,19,F,NA,variable,homogeneous,5,absent,0.649641990661621,1,vertical,vertical,1,0.988231730461121,red,5,NaN,547.481642470899,635.489140744817,NaN,NaN,755.719714694933,851.125977018113,1025.15163617903,719.715248510402,983.431649086356,422.862115532956,688.215357568785,370.807518193712,547.481642470899,635.489140744817,0,0,0,0,0,0,4,NaN,vertical,vertical,horizontal,horizontal,vertical,none
1c,1,100139,1,52,52,19,F,NA,variable,homogeneous,3,absent,1.13915395736694,1,vertical,vertical,1,0.611764597892761,red,3,NaN,786.654331158049,345.349468637584,NaN,NaN,586.139005173917,738.882953928832,1027.20666366803,715.767577433584,786.654331158049,345.349468637584,0,0,0,0,0,0,0,0,4,NaN,NaN,NaN,vertical,horizontal,vertical,none,none,none
1c,1,100139,1,53,53,19,F,NA,variable,homogeneous,5,present,0.846251964569092,1,horizontal,horizontal,1,0.799998164176941,red,5,2,583.747735480111,735.129412379467,1054.37883281626,617.787900804752,861.690083377915,847.425410200379,1054.37883281626,617.787900804752,895.524681321058,363.568117085469,604.658667004661,436.089159529932,583.747735480111,735.129412379467,0,0,0,0,0,0,4,NaN,vertical,vertical,vertical,horizontal,horizontal,none
1c,1,100139,1,54,54,19,F,NA,variable,homogeneous,4,present,0.905461072921753,1,vertical,vertical,1,0.905879545211792,red,1,2,777.775285599347,854.029648013395,1054.0296480134,622.224714400653,777.775285599347,854.029648013395,1054.0296480134,622.224714400653,822.224714400653,345.970351986605,545.970351986605,577.775285599347,0,0,0,0,4,0,0,0,NaN,NaN,vertical,vertical,horizontal,vertical,none,none
1c,1,100139,1,55,55,19,F,NA,variable,homogeneous,6,absent,0.793499946594238,1,vertical,vertical,1,0.682352185249329,green,3,NaN,946.261991269517,391.116228706307,NaN,NaN,907.767656743878,831.108485694346,1054.0296480134,622.224714400653,946.261991269517,391.116228706307,692.232343256122,368.891514305654,545.970351986605,577.775285599347,653.738008730483,808.883771293693,0,0,4,0,0,0,vertical,vertical,vertical,vertical,horizontal,vertical
1c,1,100139,1,56,56,19,F,NA,variable,homogeneous,5,present,0.723001956939697,1,vertical,vertical,1,1.09411311149597,green,3,2,919.715248510402,374.848363820974,1051.12597701811,644.280285305067,835.489140744817,852.518357529101,1051.12597701811,644.280285305067,919.715248510402,374.848363820974,622.862115532956,416.568350913644,570.807518193712,711.784642431215,0,0,0,0,4,0,0,NaN,horizontal,vertical,vertical,vertical,horizontal,none
1c,1,100139,1,57,57,19,F,NA,variable,homogeneous,6,absent,0.699834108352661,1,horizontal,horizontal,1,0.894114947319031,red,3,NaN,1025.15163617903,480.284751489598,NaN,NaN,791.100628340862,854.844660889869,1016.25226451989,735.129412379467,1025.15163617903,480.284751489598,808.899371659138,345.155339110131,583.747735480111,464.870587620533,574.848363820974,719.715248510402,0,0,4,0,0,0,horizontal,horizontal,horizontal,vertical,vertical,vertical
1c,1,100139,1,58,58,19,F,NA,variable,homogeneous,4,present,0.530537128448486,1,vertical,vertical,1,0.823527359962463,green,2,3,1050.31493177915,551.343706178981,751.343706178981,349.685068220846,848.656293821019,850.314931779154,1050.31493177915,551.343706178981,751.343706178981,349.685068220846,549.685068220846,648.656293821019,0,0,0,0,0,4,0,0,NaN,NaN,horizontal,vertical,vertical,vertical,none,none
1c,1,100139,1,59,59,19,F,NA,variable,homogeneous,6,absent,0.758795976638794,0,vertical,horizontal,1,1.07058391571045,green,5,NaN,668.665290897936,381.422338320961,NaN,NaN,676.373546837184,823.028025320546,931.334709102064,818.577661679039,1054.96116226488,595.549636358493,923.626453162816,376.971974679454,668.665290897936,381.422338320961,545.03883773512,604.450363641507,0,0,0,0,4,0,vertical,horizontal,vertical,horizontal,vertical,horizontal
1c,1,100139,1,60,60,19,F,NA,variable,homogeneous,4,present,0.642986059188843,1,horizontal,horizontal,1,0.647058391571045,green,3,1,813.345668841951,345.349468637584,786.654331158049,854.650531362416,786.654331158049,854.650531362416,1054.65053136242,613.345668841951,813.345668841951,345.349468637584,545.349468637584,586.654331158049,0,0,0,0,0,0,4,0,NaN,NaN,vertical,vertical,horizontal,vertical,none,none
1c,1,100139,1,61,61,19,F,NA,variable,homogeneous,5,absent,0.725481986999512,1,vertical,vertical,1,0.870585751533508,green,2,NaN,1047.42541020038,661.690083377915,NaN,NaN,817.787900804752,854.378832816255,1047.42541020038,661.690083377915,935.129412379467,383.747735480111,636.089159529932,404.658667004661,563.568117085469,695.524681321058,0,0,0,4,0,0,0,NaN,vertical,vertical,horizontal,horizontal,horizontal,none
1c,1,100139,1,62,62,19,F,NA,variable,homogeneous,5,absent,1.29255485534668,1,horizontal,horizontal,1,0.623529195785522,red,1,NaN,857.362518857686,848.464366520235,NaN,NaN,857.362518857686,848.464366520235,1054.0296480134,622.224714400653,899.636437764765,365.271262369628,607.549057043193,432.704947607421,581.422338320961,731.334709102064,0,0,4,0,0,0,0,NaN,horizontal,vertical,horizontal,horizontal,horizontal,none
1c,1,100139,1,63,63,19,F,NA,variable,homogeneous,4,absent,1.06306910514832,1,horizontal,horizontal,1,0.823527359962463,green,4,NaN,548.13947314824,560.109211414741,NaN,NaN,760.109211414741,851.86052685176,1051.86052685176,639.890788585259,839.890788585259,348.13947314824,548.13947314824,560.109211414741,0,0,0,0,0,0,0,4,NaN,NaN,horizontal,vertical,vertical,horizontal,none,none
1c,1,100139,1,64,64,19,F,NA,variable,homogeneous,5,absent,0.740839004516602,1,vertical,vertical,1,0.611764597892761,green,5,NaN,545.621167183745,617.787900804752,NaN,NaN,738.309916622085,847.425410200379,1016.25226451989,735.129412379467,995.341332995339,436.089159529932,704.475318678942,363.568117085469,545.621167183745,617.787900804752,0,0,0,0,0,0,4,NaN,horizontal,vertical,vertical,vertical,vertical,none
1c,1,100139,2,1,65,19,F,NA,variable,homogeneous,5,absent,1.30718898773193,1,horizontal,horizontal,1,0.670587587356567,green,1,NaN,919.715248510402,825.151636179026,NaN,NaN,919.715248510402,825.151636179026,1051.12597701811,555.719714694933,835.489140744817,347.4816424709,570.807518193712,488.215357568785,622.862115532956,783.431649086356,0,0,4,0,0,0,0,NaN,horizontal,horizontal,vertical,horizontal,vertical,none
1c,1,100139,2,2,66,19,F,NA,variable,homogeneous,4,absent,1.15889477729797,1,horizontal,horizontal,1,0.670587587356567,red,4,NaN,560.378381699593,687.215136548046,NaN,NaN,887.215136548046,839.621618300407,1039.62161830041,512.784863451954,712.784863451954,360.378381699593,560.378381699593,687.215136548046,0,0,0,0,0,0,0,4,NaN,NaN,horizontal,vertical,horizontal,horizontal,none,none
1c,1,100139,2,3,67,19,F,NA,variable,homogeneous,3,absent,1.27128219604492,1,vertical,vertical,1,0.658822989463806,green,3,NaN,568.891514305654,492.232343256122,NaN,NaN,822.224714400653,854.029648013395,1008.88377129369,453.738008730483,568.891514305654,492.232343256122,0,0,0,0,0,0,0,0,4,NaN,NaN,NaN,horizontal,horizontal,vertical,none,none,none
1c,1,100139,2,4,68,19,F,NA,variable,homogeneous,5,absent,0.909109115600586,1,vertical,vertical,1,0.999996328353882,red,5,NaN,596.34794493794,753.462830903772,NaN,NaN,883.019879386575,841.107236777826,1054.96116226488,595.549636358493,874.554784704298,356.142287229426,591.116228706307,453.738008730483,596.34794493794,753.462830903772,0,0,0,0,0,0,4,NaN,horizontal,vertical,horizontal,vertical,vertical,none
1c,1,100139,2,5,69,19,F,NA,variable,homogeneous,5,absent,1.35820603370667,1,vertical,vertical,1,0.729410576820374,green,2,NaN,992.450942956807,767.295052392579,NaN,NaN,700.363562235235,834.728737630372,992.450942956807,767.295052392579,1018.57766167904,468.665290897936,742.637481142314,351.535633479765,545.970351986605,577.775285599347,0,0,0,4,0,0,0,NaN,horizontal,vertical,horizontal,vertical,vertical,none
1c,1,100139,2,6,70,19,F,NA,variable,homogeneous,6,absent,1.80632281303406,1,vertical,vertical,1,0.635293793678284,green,4,NaN,831.076682568313,346.900731331463,NaN,NaN,768.923317431687,853.099268668537,1003.65205506206,753.462830903772,1034.72873763037,500.363562235235,831.076682568313,346.900731331463,596.34794493794,446.537169096228,565.271262369628,699.636437764765,0,0,0,4,0,0,horizontal,vertical,vertical,vertical,vertical,vertical
1c,1,100139,2,7,71,19,F,NA,variable,homogeneous,4,absent,1.38328313827515,1,horizontal,horizontal,1,0.835291957855225,green,4,NaN,554.878267535729,529.712474266665,NaN,NaN,729.712474266665,845.121732464271,1045.12173246427,670.287525733335,870.287525733335,354.878267535729,554.878267535729,529.712474266665,0,0,0,0,0,0,0,4,NaN,NaN,horizontal,horizontal,horizontal,horizontal,none,none
1c,1,100139,2,8,72,19,F,NA,variable,homogeneous,5,present,0.875675916671753,1,horizontal,horizontal,1,0.847056555747986,red,3,5,1031.10848569435,492.232343256122,549.685068220846,551.343706178981,676.373546837184,823.028025320546,973.909581815937,786.495193912888,1031.10848569435,492.232343256122,768.923317431687,346.900731331463,549.685068220846,551.343706178981,0,0,0,0,4,0,0,NaN,horizontal,horizontal,horizontal,vertical,vertical,none
1c,1,100139,2,9,73,19,F,NA,variable,homogeneous,5,present,1.16399312019348,1,vertical,vertical,1,0.717645978927612,green,1,4,672.5,820.836477965032,773.345241866748,346.39691668109,672.5,820.836477965032,970.628304621509,789.501930496736,1032.95409169886,496.282156015671,773.345241866748,346.39691668109,550.57236181288,546.982518841471,0,0,4,0,0,0,0,NaN,vertical,horizontal,vertical,horizontal,horizontal,none
1c,1,100139,2,10,74,19,F,NA,variable,homogeneous,6,present,1.18136811256409,0,vertical,horizontal,1,1.09411311149597,red,1,4,786.654331158049,854.650531362416,813.345668841951,345.349468637584,786.654331158049,854.650531362416,1013.86099482608,738.882953928832,1027.20666366803,484.232422566416,813.345668841951,345.349468637584,586.139005173917,461.117046071168,572.793336331966,715.767577433584,4,0,0,0,0,0,vertical,vertical,horizontal,vertical,vertical,vertical
1c,1,100139,2,11,75,19,F,NA,variable,homogeneous,3,absent,0.797976970672607,1,horizontal,horizontal,1,1.03529012203217,red,1,NaN,700.363562235235,834.728737630372,NaN,NaN,700.363562235235,834.728737630372,1053.09926866854,568.923317431687,646.537169096228,396.34794493794,0,0,0,0,0,0,4,0,0,NaN,NaN,NaN,horizontal,horizontal,vertical,none,none,none
1c,1,100139,2,12,76,19,F,NA,variable,homogeneous,6,present,1.80601811408997,1,horizontal,horizontal,1,0.799998164176941,green,2,1,953.462830903772,803.65205506206,700.363562235235,834.728737630372,700.363562235235,834.728737630372,953.462830903772,803.65205506206,1053.09926866854,568.923317431687,899.636437764765,365.271262369628,646.537169096228,396.34794493794,546.900731331463,631.076682568313,0,4,0,0,0,0,vertical,horizontal,horizontal,horizontal,vertical,horizontal
1c,1,100139,2,13,77,19,F,NA,variable,homogeneous,4,present,0.959245920181274,1,horizontal,horizontal,1,1.03529012203217,green,1,4,960.476699717708,798.172220171528,601.827779828472,760.476699717708,960.476699717708,798.172220171528,998.172220171528,439.523300282291,639.523300282292,401.827779828472,601.827779828472,760.476699717708,0,0,0,0,4,0,0,0,NaN,NaN,horizontal,vertical,vertical,horizontal,none,none
1c,1,100139,2,14,78,19,F,NA,variable,homogeneous,4,present,1.03470587730408,1,vertical,vertical,1,0.623529195785522,green,2,4,1011.40458100154,457.40580961496,588.595418998464,742.594190385041,942.594190385041,811.404581001536,1011.40458100154,457.40580961496,657.405809614959,388.595418998464,588.595418998464,742.594190385041,0,0,0,0,0,4,0,0,NaN,NaN,horizontal,vertical,vertical,vertical,none,none
1c,1,100139,2,15,79,19,F,NA,variable,homogeneous,4,present,1.65636897087097,1,vertical,vertical,1,0.635293793678284,red,3,4,800,345,545,600,800,855,1055,600,800,345,545,600,0,0,0,0,0,0,4,0,NaN,NaN,vertical,vertical,vertical,vertical,none,none
1c,1,100139,2,16,80,19,F,NA,variable,homogeneous,4,absent,0.939164161682129,1,vertical,vertical,1,0.88235034942627,green,3,NaN,626.090418184063,413.504806087112,NaN,NaN,973.909581815937,786.495193912888,986.495193912888,426.090418184063,626.090418184063,413.504806087112,613.504806087112,773.909581815937,0,0,0,0,0,0,4,0,NaN,NaN,vertical,horizontal,vertical,horizontal,none,none
1c,1,100139,2,17,81,19,F,NA,variable,homogeneous,4,present,0.82603907585144,1,vertical,vertical,1,0.78823356628418,red,4,2,599.057257830286,443.006323791957,1000.94274216971,756.993676208043,643.006323791957,800.942742169714,1000.94274216971,756.993676208043,956.993676208043,399.057257830286,599.057257830286,443.006323791957,0,0,0,0,0,0,0,4,NaN,NaN,horizontal,vertical,vertical,vertical,none,none
1c,1,100139,2,18,82,19,F,NA,variable,homogeneous,3,absent,0.872159004211426,1,horizontal,horizontal,1,1.07058391571045,green,2,NaN,998.172220171528,439.523300282291,NaN,NaN,839.890788585259,851.86052685176,998.172220171528,439.523300282291,561.936991243214,508.616172865948,0,0,0,0,0,0,0,4,0,NaN,NaN,NaN,horizontal,horizontal,vertical,none,none,none
1c,1,100139,2,19,83,19,F,NA,variable,homogeneous,3,present,0.94182300567627,1,vertical,vertical,1,0.6,green,2,1,1032.95409169886,703.717843984329,593.700666434388,749.885239334581,593.700666434388,749.885239334581,1032.95409169886,703.717843984329,773.345241866748,346.39691668109,0,0,0,0,0,0,0,4,0,NaN,NaN,NaN,vertical,vertical,vertical,none,none,none
1c,1,100139,2,20,84,19,F,NA,variable,homogeneous,4,present,1.05693101882935,1,horizontal,horizontal,1,1.01176092624664,red,4,2,556.142287229426,525.445215295702,1043.85771277057,674.554784704298,725.445215295702,843.857712770574,1043.85771277057,674.554784704298,874.554784704298,356.142287229426,556.142287229426,525.445215295702,0,0,0,0,0,0,0,4,NaN,NaN,horizontal,vertical,horizontal,horizontal,none,none
1c,1,100139,2,21,85,19,F,NA,variable,homogeneous,4,absent,1.12787485122681,1,vertical,vertical,1,0.870585751533508,red,1,NaN,865.998856501143,846.311085703712,NaN,NaN,865.998856501143,846.311085703712,1046.31108570371,534.001143498857,734.001143498857,353.688914296288,553.688914296288,665.998856501143,0,0,0,0,4,0,0,0,NaN,NaN,vertical,horizontal,horizontal,vertical,none,none
1c,1,100139,2,22,86,19,F,NA,variable,homogeneous,6,absent,1.07189798355103,1,vertical,vertical,1,1.05881931781769,green,3,NaN,1016.25226451989,464.870587620533,NaN,NaN,808.899371659138,854.844660889869,1025.15163617903,719.715248510402,1016.25226451989,464.870587620533,791.100628340862,345.155339110131,574.848363820974,480.284751489598,583.747735480111,735.129412379467,0,0,4,0,0,0,horizontal,vertical,vertical,vertical,horizontal,vertical
1c,1,100139,2,23,87,19,F,NA,variable,homogeneous,5,present,0.764564037322998,1,vertical,vertical,1,0.952937936782837,green,5,1,556.142287229426,525.445215295702,653.738008730483,808.883771293693,653.738008730483,808.883771293693,953.462830903772,803.65205506206,1041.10723677783,516.980120613425,795.549636358493,345.03883773512,556.142287229426,525.445215295702,0,0,0,0,0,0,4,NaN,vertical,horizontal,horizontal,horizontal,vertical,none
1c,1,100139,2,24,88,19,F,NA,variable,homogeneous,3,present,0.544247150421143,1,vertical,vertical,1,1.01176092624664,green,2,3,1053.09926866854,631.076682568313,700.363562235235,365.271262369628,646.537169096228,803.65205506206,1053.09926866854,631.076682568313,700.363562235235,365.271262369628,0,0,0,0,0,0,0,4,0,NaN,NaN,NaN,horizontal,vertical,horizontal,none,none,none
1c,1,100139,2,25,89,19,F,NA,variable,homogeneous,6,present,1.24375009536743,1,horizontal,horizontal,1,0.811762762069702,green,1,6,911.784642431215,829.192481806288,657.405809614959,811.404581001536,911.784642431215,829.192481806288,1054.37883281626,617.787900804752,942.594190385041,388.595418998464,688.215357568785,370.807518193712,545.621167183745,582.212099195248,657.405809614959,811.404581001536,4,0,0,0,0,0,horizontal,horizontal,horizontal,horizontal,horizontal,vertical
1c,1,100139,2,26,90,19,F,NA,variable,homogeneous,5,present,1.13222289085388,1,horizontal,horizontal,1,0.976467132568359,green,3,1,977.137884467044,416.568350913644,764.510859255183,852.518357529101,764.510859255183,852.518357529101,1029.19248180629,711.784642431215,977.137884467044,416.568350913644,680.284751489598,374.848363820974,548.874022981887,644.280285305067,0,0,0,0,4,0,0,NaN,horizontal,horizontal,horizontal,vertical,vertical,none
1c,1,100139,2,27,91,19,F,NA,variable,homogeneous,3,present,0.700901985168457,1,horizontal,horizontal,1,0.682352185249329,green,2,3,1048.46436652023,542.637481142314,626.090418184063,413.504806087112,725.445215295702,843.857712770574,1048.46436652023,542.637481142314,626.090418184063,413.504806087112,0,0,0,0,0,0,0,4,0,NaN,NaN,NaN,vertical,horizontal,vertical,none,none,none
1c,1,100139,2,28,92,19,F,NA,variable,homogeneous,4,absent,0.860833883285522,1,vertical,vertical,1,0.894114947319031,green,2,NaN,980.31222920257,780.31222920257,NaN,NaN,619.68777079743,780.31222920257,980.31222920257,780.31222920257,980.31222920257,419.68777079743,619.68777079743,419.68777079743,0,0,0,0,0,4,0,0,NaN,NaN,vertical,vertical,vertical,horizontal,none,none
1c,1,100139,2,29,93,19,F,NA,variable,homogeneous,4,absent,0.81412410736084,1,horizontal,horizontal,1,0.999996328353882,red,4,NaN,616.568350913644,422.862115532956,NaN,NaN,622.862115532956,783.431649086356,983.431649086356,777.137884467044,977.137884467044,416.568350913644,616.568350913644,422.862115532956,0,0,0,0,0,0,0,4,NaN,NaN,vertical,vertical,vertical,horizontal,none,none
1c,1,100139,2,30,94,19,F,NA,variable,homogeneous,3,present,0.801553964614868,1,horizontal,horizontal,1,0.741175174713135,red,3,1,599.057257830286,443.006323791957,764.510859255183,852.518357529101,764.510859255183,852.518357529101,1036.43188291453,504.475318678942,599.057257830286,443.006323791957,0,0,0,0,0,0,0,0,4,NaN,NaN,NaN,horizontal,horizontal,horizontal,none,none,none
1c,1,100139,2,31,95,19,F,NA,variable,homogeneous,4,absent,0.941886186599731,1,vertical,vertical,1,0.999996328353882,red,3,NaN,786.654331158049,345.349468637584,NaN,NaN,813.345668841951,854.650531362416,1054.65053136242,586.654331158049,786.654331158049,345.349468637584,545.349468637584,613.345668841951,0,0,0,0,0,0,4,0,NaN,NaN,vertical,horizontal,vertical,vertical,none,none
1c,1,100139,2,32,96,19,F,NA,variable,homogeneous,3,present,0.649726152420044,1,horizontal,horizontal,1,1.03529012203217,green,3,1,696.282156015671,367.045908301137,650.114760665419,806.299333565612,650.114760665419,806.299333565612,1053.60308331891,626.654758133252,696.282156015671,367.045908301137,0,0,0,0,0,0,0,0,4,NaN,NaN,NaN,horizontal,horizontal,horizontal,none,none,none
1c,1,100139,2,33,97,19,F,NA,variable,homogeneous,6,present,1.6395218372345,1,vertical,vertical,1,0.623529195785522,green,2,5,1046.31108570371,665.998856501143,553.688914296288,534.001143498857,865.998856501143,846.311085703712,1046.31108570371,665.998856501143,980.31222920257,419.68777079743,734.001143498857,353.688914296288,553.688914296288,534.001143498857,619.68777079743,780.31222920257,0,4,0,0,0,0,vertical,vertical,vertical,vertical,vertical,horizontal
1c,1,100139,2,34,98,19,F,NA,variable,homogeneous,3,absent,0.765187978744507,1,vertical,vertical,1,1.03529012203217,red,2,NaN,1011.40458100154,457.40580961496,NaN,NaN,817.787900804752,854.378832816255,1011.40458100154,457.40580961496,570.807518193712,488.215357568785,0,0,0,0,0,0,0,4,0,NaN,NaN,NaN,vertical,vertical,horizontal,none,none,none
1c,1,100139,2,35,99,19,F,NA,variable,homogeneous,6,absent,1.37643694877625,1,vertical,vertical,1,0.78823356628418,red,1,NaN,853.017481158529,849.42763818712,NaN,NaN,853.017481158529,849.42763818712,1042.51941165526,678.799333565612,989.501930496736,429.371695378491,746.982518841471,350.57236181288,557.480588344736,521.200666434388,610.498069503264,770.628304621509,4,0,0,0,0,0,vertical,horizontal,vertical,vertical,horizontal,horizontal
1c,1,100139,2,36,100,19,F,NA,variable,homogeneous,3,present,0.645696878433228,1,vertical,vertical,1,0.670587587356567,red,2,1,1003.65205506206,446.537169096228,831.076682568313,853.099268668537,831.076682568313,853.099268668537,1003.65205506206,446.537169096228,565.271262369628,500.363562235235,0,0,0,0,0,0,0,4,0,NaN,NaN,NaN,horizontal,vertical,vertical,none,none,none
1c,1,100139,2,37,101,19,F,NA,variable,homogeneous,5,absent,0.919638872146606,1,vertical,vertical,1,1.03529012203217,green,1,NaN,804.450363641507,854.96116226488,NaN,NaN,804.450363641507,854.96116226488,1043.85771277057,674.554784704298,946.261991269517,391.116228706307,646.537169096228,396.34794493794,558.892763222174,683.019879386575,0,0,4,0,0,0,0,NaN,vertical,horizontal,horizontal,horizontal,horizontal,none
1c,1,100139,2,38,102,19,F,NA,variable,homogeneous,5,absent,1.08531212806702,1,horizontal,horizontal,1,0.952937936782837,green,2,NaN,1031.10848569435,707.767656743878,NaN,NaN,768.923317431687,853.099268668537,1031.10848569435,707.767656743878,973.909581815937,413.504806087112,676.373546837184,376.971974679454,549.685068220846,648.656293821019,0,0,0,4,0,0,0,NaN,vertical,horizontal,vertical,vertical,horizontal,none
1c,1,100139,2,39,103,19,F,NA,variable,homogeneous,6,absent,1.02141189575195,1,horizontal,horizontal,1,0.905879545211792,red,4,NaN,773.345241866748,346.39691668109,NaN,NaN,826.654758133252,853.60308331891,1032.95409169886,703.717843984329,1006.29933356561,450.114760665419,773.345241866748,346.39691668109,567.045908301137,496.282156015671,593.700666434388,749.885239334581,0,0,0,4,0,0,horizontal,vertical,horizontal,horizontal,vertical,horizontal
1c,1,100139,2,40,104,19,F,NA,variable,homogeneous,4,present,1.10254693031311,1,horizontal,horizontal,1,1.0235255241394,green,4,3,567.045908301137,703.717843984329,696.282156015671,367.045908301137,903.717843984329,832.954091698863,1032.95409169886,496.282156015671,696.282156015671,367.045908301137,567.045908301137,703.717843984329,0,0,0,0,0,0,0,4,NaN,NaN,vertical,vertical,vertical,horizontal,none,none
1c,1,100139,2,41,105,19,F,NA,variable,homogeneous,6,absent,1.00166201591492,1,horizontal,horizontal,1,1.05881931781769,red,4,NaN,878.799333565612,357.480588344736,NaN,NaN,721.200666434388,842.519411655264,970.628304621509,789.501930496736,1049.42763818712,546.982518841471,878.799333565612,357.480588344736,629.371695378491,410.498069503264,550.57236181288,653.017481158529,0,0,0,4,0,0,horizontal,horizontal,vertical,horizontal,horizontal,vertical
1c,1,100139,2,42,106,19,F,NA,variable,homogeneous,6,present,0.992027997970581,1,horizontal,horizontal,1,0.69411678314209,red,1,5,800,855,579.163522034968,472.5,800,855,1020.83647796503,727.5,1020.83647796503,472.5,800,345,579.163522034968,472.5,579.163522034968,727.5,4,0,0,0,0,0,horizontal,vertical,horizontal,vertical,horizontal,vertical
1c,1,100139,2,43,107,19,F,NA,variable,homogeneous,6,absent,0.761337041854858,1,horizontal,horizontal,1,0.670587587356567,green,6,NaN,629.371695378491,789.501930496736,NaN,NaN,878.799333565612,842.519411655264,1049.42763818712,653.017481158529,970.628304621509,410.498069503264,721.200666434388,357.480588344736,550.57236181288,546.982518841471,629.371695378491,789.501930496736,0,0,0,0,0,4,horizontal,vertical,vertical,vertical,horizontal,horizontal
1c,1,100139,2,44,108,19,F,NA,variable,homogeneous,5,absent,0.971253871917725,1,horizontal,horizontal,1,0.929408740997314,red,5,NaN,549.685068220846,648.656293821019,NaN,NaN,768.923317431687,853.099268668537,1031.10848569435,707.767656743878,973.909581815937,413.504806087112,676.373546837184,376.971974679454,549.685068220846,648.656293821019,0,0,0,0,0,0,4,NaN,vertical,vertical,vertical,vertical,horizontal,none
1c,1,100139,2,45,109,19,F,NA,variable,homogeneous,4,present,0.715299129486084,1,horizontal,horizontal,1,1.0235255241394,red,1,3,857.362518857686,848.464366520235,742.637481142314,351.535633479765,857.362518857686,848.464366520235,1048.46436652023,542.637481142314,742.637481142314,351.535633479765,551.535633479765,657.362518857686,0,0,0,0,4,0,0,0,NaN,NaN,horizontal,vertical,horizontal,vertical,none,none
1c,1,100139,2,46,110,19,F,NA,variable,homogeneous,5,absent,0.774636030197144,1,horizontal,horizontal,1,0.647058391571045,red,1,NaN,716.980120613425,841.107236777826,NaN,NaN,716.980120613425,841.107236777826,1003.65205506206,753.462830903772,1008.88377129369,453.738008730483,725.445215295702,356.142287229426,545.03883773512,595.549636358493,0,0,4,0,0,0,0,NaN,horizontal,vertical,vertical,vertical,horizontal,none
1c,1,100139,2,47,111,19,F,NA,variable,homogeneous,5,present,1.00013399124146,1,horizontal,horizontal,1,0.69411678314209,red,5,2,547.481642470899,564.510859255183,983.431649086356,777.137884467044,688.215357568785,829.192481806288,983.431649086356,777.137884467044,1025.15163617903,480.284751489598,755.719714694933,348.874022981887,547.481642470899,564.510859255183,0,0,0,0,0,0,4,NaN,vertical,vertical,vertical,vertical,horizontal,none
1c,1,100139,2,48,112,19,F,NA,variable,homogeneous,5,absent,0.71257495880127,1,vertical,vertical,1,0.811762762069702,red,4,NaN,636.089159529932,404.658667004661,NaN,NaN,817.787900804752,854.378832816255,1047.42541020038,661.690083377915,935.129412379467,383.747735480111,636.089159529932,404.658667004661,563.568117085469,695.524681321058,0,0,0,0,0,4,0,NaN,vertical,horizontal,horizontal,vertical,vertical,none
1c,1,100139,2,49,113,19,F,NA,variable,homogeneous,3,absent,0.748579978942871,1,vertical,vertical,1,1.07058391571045,red,2,NaN,980.31222920257,419.68777079743,NaN,NaN,865.998856501143,846.311085703712,980.31222920257,419.68777079743,553.688914296288,534.001143498857,0,0,0,0,0,0,0,4,0,NaN,NaN,NaN,horizontal,vertical,horizontal,none,none,none
1c,1,100139,2,50,114,19,F,NA,variable,homogeneous,3,present,0.62935209274292,1,vertical,vertical,1,0.69411678314209,red,3,1,632.704947607421,407.549057043193,716.980120613425,841.107236777826,716.980120613425,841.107236777826,1050.31493177915,551.343706178981,632.704947607421,407.549057043193,0,0,0,0,0,0,0,0,4,NaN,NaN,NaN,vertical,horizontal,vertical,none,none,none
1c,1,100139,2,51,115,19,F,NA,variable,homogeneous,5,present,0.677989959716797,1,vertical,vertical,1,0.78823356628418,red,5,4,547.481642470899,635.489140744817,688.215357568785,370.807518193712,755.719714694933,851.125977018113,1025.15163617903,719.715248510402,983.431649086356,422.862115532956,688.215357568785,370.807518193712,547.481642470899,635.489140744817,0,0,0,0,0,0,4,NaN,vertical,horizontal,vertical,vertical,vertical,none
1c,1,100139,2,52,116,19,F,NA,variable,homogeneous,4,absent,0.714688062667847,1,horizontal,horizontal,1,0.752939772605896,green,3,NaN,865.998856501143,353.688914296288,NaN,NaN,734.001143498857,846.311085703712,1046.31108570371,665.998856501143,865.998856501143,353.688914296288,553.688914296288,534.001143498857,0,0,0,0,0,0,4,0,NaN,NaN,horizontal,vertical,horizontal,horizontal,none,none
1c,1,100139,2,53,117,19,F,NA,variable,homogeneous,5,present,1.13485598564148,1,vertical,vertical,1,0.894114947319031,red,5,2,545.349468637584,613.345668841951,1013.86099482608,738.882953928832,734.001143498857,846.311085703712,1013.86099482608,738.882953928832,998.172220171528,439.523300282291,708.616172865948,361.936991243214,545.349468637584,613.345668841951,0,0,0,0,0,0,4,NaN,horizontal,vertical,horizontal,vertical,vertical,none
1c,1,100139,2,54,118,19,F,NA,variable,homogeneous,3,present,0.746685981750488,1,horizontal,horizontal,1,0.847056555747986,red,2,3,1048.46436652023,657.362518857686,725.445215295702,356.142287229426,626.090418184063,786.495193912888,1048.46436652023,657.362518857686,725.445215295702,356.142287229426,0,0,0,0,0,0,0,4,0,NaN,NaN,NaN,horizontal,horizontal,horizontal,none,none,none
1c,1,100139,2,55,119,19,F,NA,variable,homogeneous,6,absent,0.626255989074707,1,vertical,vertical,1,0.823527359962463,red,3,NaN,977.137884467044,416.568350913644,NaN,NaN,870.287525733335,845.121732464271,1047.42541020038,661.690083377915,977.137884467044,416.568350913644,729.712474266665,354.878267535729,552.574589799621,538.309916622085,622.862115532956,783.431649086356,0,0,4,0,0,0,horizontal,vertical,vertical,vertical,horizontal,vertical
1c,1,100139,2,56,120,19,F,NA,variable,homogeneous,6,present,1.56138300895691,1,horizontal,horizontal,1,0.717645978927612,red,6,3,565.271262369628,699.636437764765,1034.72873763037,500.363562235235,768.923317431687,853.099268668537,1003.65205506206,753.462830903772,1034.72873763037,500.363562235235,831.076682568313,346.900731331463,596.34794493794,446.537169096228,565.271262369628,699.636437764765,0,0,0,0,0,4,horizontal,horizontal,horizontal,horizontal,vertical,horizontal
1c,1,100139,2,57,121,19,F,NA,variable,homogeneous,3,absent,0.819838047027588,1,horizontal,horizontal,1,0.952937936782837,green,3,NaN,553.688914296288,665.998856501143,NaN,NaN,980.31222920257,780.31222920257,865.998856501143,353.688914296288,553.688914296288,665.998856501143,0,0,0,0,0,0,0,0,4,NaN,NaN,NaN,horizontal,vertical,horizontal,none,none,none
1c,1,100139,2,58,122,19,F,NA,variable,homogeneous,6,present,1.14421796798706,1,vertical,vertical,1,1.01176092624664,red,1,5,782.212099195248,854.378832816255,588.595418998464,457.40580961496,782.212099195248,854.378832816255,1011.40458100154,742.594190385041,1029.19248180629,488.215357568785,817.787900804752,345.621167183745,588.595418998464,457.40580961496,570.807518193712,711.784642431215,4,0,0,0,0,0,vertical,horizontal,vertical,horizontal,vertical,horizontal
1c,1,100139,2,59,123,19,F,NA,variable,homogeneous,3,absent,0.806704998016357,1,vertical,vertical,1,0.752939772605896,green,1,NaN,835.489140744817,852.518357529101,NaN,NaN,835.489140744817,852.518357529101,1000.94274216971,443.006323791957,563.568117085469,504.475318678942,0,0,0,0,0,0,4,0,0,NaN,NaN,NaN,vertical,vertical,vertical,none,none,none
1c,1,100139,2,60,124,19,F,NA,variable,homogeneous,5,present,0.995434045791626,1,horizontal,horizontal,1,0.823527359962463,green,4,5,782.212099195248,345.621167183745,552.574589799621,538.309916622085,664.870587620533,816.252264519889,963.910840470068,795.341332995339,1036.43188291453,504.475318678942,782.212099195248,345.621167183745,552.574589799621,538.309916622085,0,0,0,0,0,4,0,NaN,horizontal,horizontal,horizontal,horizontal,vertical,none
1c,1,100139,2,61,125,19,F,NA,variable,homogeneous,3,absent,1.04662489891052,1,horizontal,horizontal,1,0.964702534675598,red,1,NaN,688.215357568785,829.192481806288,NaN,NaN,688.215357568785,829.192481806288,1054.37883281626,582.212099195248,657.405809614959,388.595418998464,0,0,0,0,0,0,4,0,0,NaN,NaN,NaN,horizontal,horizontal,horizontal,none,none,none
1c,1,100139,2,62,126,19,F,NA,variable,homogeneous,4,present,1.39480710029602,1,vertical,vertical,1,0.929408740997314,green,4,1,548.13947314824,639.890788585259,839.890788585259,851.86052685176,839.890788585259,851.86052685176,1051.86052685176,560.109211414741,760.109211414741,348.13947314824,548.13947314824,639.890788585259,0,0,0,0,0,0,0,4,NaN,NaN,horizontal,vertical,vertical,vertical,none,none
1c,1,100139,2,63,127,19,F,NA,variable,homogeneous,6,absent,1.0687050819397,1,horizontal,horizontal,1,0.894114947319031,green,2,NaN,956.993676208043,800.942742169714,NaN,NaN,704.475318678942,836.431882914531,956.993676208043,800.942742169714,1052.5183575291,564.510859255183,895.524681321058,363.568117085469,643.006323791957,399.057257830286,547.481642470899,635.489140744817,0,4,0,0,0,0,vertical,horizontal,vertical,vertical,vertical,vertical
1c,1,100139,2,64,128,19,F,NA,variable,homogeneous,6,present,1.36597394943237,1,vertical,vertical,1,0.999996328353882,green,5,2,636.089159529932,404.658667004661,963.910840470068,795.341332995339,712.784863451954,839.621618300407,963.910840470068,795.341332995339,1051.12597701811,555.719714694933,887.215136548046,360.378381699593,636.089159529932,404.658667004661,548.874022981887,644.280285305067,0,0,0,0,4,0,vertical,vertical,horizontal,vertical,vertical,vertical
1c,1,100139,3,1,129,19,F,NA,variable,homogeneous,4,absent,1.00078320503235,1,vertical,vertical,1,0.894114947319031,red,2,NaN,1032.95409169886,703.717843984329,NaN,NaN,696.282156015671,832.954091698863,1032.95409169886,703.717843984329,903.717843984329,367.045908301137,567.045908301137,496.282156015671,0,0,0,0,0,4,0,0,NaN,NaN,vertical,vertical,vertical,vertical,none,none
1c,1,100139,3,2,130,19,F,NA,variable,homogeneous,5,present,0.664015054702759,1,vertical,vertical,1,0.764704370498657,red,2,5,949.885239334581,806.299333565612,557.480588344736,521.200666434388,650.114760665419,806.299333565612,949.885239334581,806.299333565612,1042.51941165526,521.200666434388,800,345,557.480588344736,521.200666434388,0,0,0,4,0,0,0,NaN,vertical,vertical,horizontal,vertical,vertical,none
1c,1,100139,3,3,131,19,F,NA,variable,homogeneous,6,absent,0.958956956863403,1,vertical,vertical,1,0.858821153640747,green,5,NaN,616.568350913644,422.862115532956,NaN,NaN,738.309916622085,847.425410200379,983.431649086356,777.137884467044,1045.12173246427,529.712474266665,861.690083377915,352.574589799621,616.568350913644,422.862115532956,554.878267535729,670.287525733335,0,0,0,0,4,0,vertical,vertical,horizontal,vertical,vertical,vertical
1c,1,100139,3,4,132,19,F,NA,variable,homogeneous,6,present,0.951029062271118,1,horizontal,horizontal,1,0.835291957855225,green,2,4,938.882953928832,813.860994826083,915.767577433584,372.793336331966,684.232422566416,827.206663668034,938.882953928832,813.860994826083,1054.65053136242,586.654331158049,915.767577433584,372.793336331966,661.117046071168,386.139005173917,545.349468637584,613.345668841951,0,4,0,0,0,0,horizontal,horizontal,horizontal,horizontal,horizontal,horizontal
1c,1,100139,3,5,133,19,F,NA,variable,homogeneous,6,absent,1.29238820075989,1,vertical,vertical,1,0.705881381034851,red,4,NaN,822.224714400653,345.970351986605,NaN,NaN,777.775285599347,854.029648013395,1008.88377129369,746.261991269517,1031.10848569435,492.232343256122,822.224714400653,345.970351986605,591.116228706307,453.738008730483,568.891514305654,707.767656743878,0,0,0,4,0,0,horizontal,vertical,horizontal,vertical,horizontal,vertical
1c,1,100139,3,6,134,19,F,NA,variable,homogeneous,4,absent,0.934570074081421,1,horizontal,horizontal,1,0.823527359962463,green,1,NaN,688.215357568785,829.192481806288,NaN,NaN,688.215357568785,829.192481806288,1029.19248180629,711.784642431215,911.784642431215,370.807518193712,570.807518193712,488.215357568785,0,0,0,0,4,0,0,0,NaN,NaN,horizontal,vertical,vertical,horizontal,none,none
1c,1,100139,3,7,135,19,F,NA,variable,homogeneous,6,present,0.871155977249146,1,horizontal,horizontal,1,0.88235034942627,red,3,4,1038.06300875679,508.616172865948,839.890788585259,348.13947314824,760.109211414741,851.86052685176,998.172220171528,760.476699717708,1038.06300875679,508.616172865948,839.890788585259,348.13947314824,601.827779828472,439.523300282291,561.936991243214,691.383827134052,0,0,4,0,0,0,horizontal,vertical,horizontal,horizontal,vertical,horizontal
1c,1,100139,3,8,136,19,F,NA,variable,homogeneous,5,present,1.06778001785278,1,horizontal,horizontal,1,0.952937936782837,red,5,4,636.089159529932,795.341332995339,563.568117085469,504.475318678942,935.129412379467,816.252264519889,1047.42541020038,538.309916622085,817.787900804752,345.621167183745,563.568117085469,504.475318678942,636.089159529932,795.341332995339,0,0,0,0,0,0,4,NaN,vertical,horizontal,vertical,vertical,horizontal,none
1c,1,100139,3,9,137,19,F,NA,variable,homogeneous,3,absent,1.11785292625427,1,vertical,vertical,1,1.0235255241394,red,3,NaN,653.738008730483,391.116228706307,NaN,NaN,692.232343256122,831.108485694346,1054.0296480134,577.775285599347,653.738008730483,391.116228706307,0,0,0,0,0,0,0,0,4,NaN,NaN,NaN,horizontal,vertical,vertical,none,none,none
1c,1,100139,3,10,138,19,F,NA,variable,homogeneous,4,present,0.539003133773804,1,vertical,vertical,1,0.729410576820374,green,3,4,725.445215295702,356.142287229426,556.142287229426,674.554784704298,874.554784704298,843.857712770574,1043.85771277057,525.445215295702,725.445215295702,356.142287229426,556.142287229426,674.554784704298,0,0,0,0,0,0,4,0,NaN,NaN,vertical,horizontal,vertical,horizontal,none,none
1c,1,100139,3,11,139,19,F,NA,variable,homogeneous,5,present,0.743820905685425,1,vertical,vertical,1,0.69411678314209,green,5,1,553.688914296288,665.998856501143,786.654331158049,854.650531362416,786.654331158049,854.650531362416,1038.06300875679,691.383827134052,960.476699717708,401.827779828472,661.117046071168,386.139005173917,553.688914296288,665.998856501143,0,0,0,0,0,0,4,NaN,horizontal,vertical,vertical,vertical,vertical,none
1c,1,100139,3,12,140,19,F,NA,variable,homogeneous,3,present,0.915956974029541,1,vertical,vertical,1,1.05881931781769,red,1,3,755.719714694933,851.125977018113,604.658667004661,436.089159529932,755.719714694933,851.125977018113,1039.62161830041,512.784863451954,604.658667004661,436.089159529932,0,0,0,0,0,0,4,0,0,NaN,NaN,NaN,vertical,horizontal,horizontal,none,none,none
1c,1,100139,3,13,141,19,F,NA,variable,homogeneous,6,absent,0.876614093780518,1,horizontal,horizontal,1,0.705881381034851,green,2,NaN,992.450942956807,767.295052392579,NaN,NaN,751.343706178981,850.314931779154,992.450942956807,767.295052392579,1041.10723677783,516.980120613425,848.656293821019,349.685068220846,607.549057043193,432.704947607421,558.892763222174,683.019879386575,0,4,0,0,0,0,horizontal,horizontal,horizontal,vertical,horizontal,horizontal
1c,1,100139,3,14,142,19,F,NA,variable,homogeneous,6,present,0.904423952102661,1,horizontal,horizontal,1,0.705881381034851,green,6,1,558.892763222174,683.019879386575,751.343706178981,850.314931779154,751.343706178981,850.314931779154,992.450942956807,767.295052392579,1041.10723677783,516.980120613425,848.656293821019,349.685068220846,607.549057043193,432.704947607421,558.892763222174,683.019879386575,0,0,0,0,0,4,horizontal,vertical,horizontal,horizontal,horizontal,horizontal
1c,1,100139,3,15,143,19,F,NA,variable,homogeneous,6,present,1.27540898323059,1,vertical,vertical,1,0.835291957855225,green,4,6,831.076682568313,346.900731331463,565.271262369628,699.636437764765,768.923317431687,853.099268668537,1003.65205506206,753.462830903772,1034.72873763037,500.363562235235,831.076682568313,346.900731331463,596.34794493794,446.537169096228,565.271262369628,699.636437764765,0,0,0,4,0,0,horizontal,horizontal,vertical,vertical,vertical,horizontal
1c,1,100139,3,16,144,19,F,NA,variable,homogeneous,5,present,1.91770005226135,1,vertical,vertical,1,1.03529012203217,red,2,5,1011.40458100154,742.594190385041,545.155339110131,608.899371659138,729.712474266665,845.121732464271,1011.40458100154,742.594190385041,1000.94274216971,443.006323791957,712.784863451954,360.378381699593,545.155339110131,608.899371659138,0,0,0,4,0,0,0,NaN,vertical,vertical,vertical,horizontal,vertical,none
1c,1,100139,3,17,145,19,F,NA,variable,homogeneous,4,present,1.04433679580688,1,vertical,vertical,1,0.799998164176941,red,3,1,676.373546837184,376.971974679454,923.626453162816,823.028025320546,923.626453162816,823.028025320546,1023.02802532055,476.373546837184,676.373546837184,376.971974679454,576.971974679454,723.626453162816,0,0,0,0,0,0,4,0,NaN,NaN,vertical,horizontal,vertical,horizontal,none,none
1c,1,100139,3,18,146,19,F,NA,variable,homogeneous,6,present,NaN,0,vertical,none,0,0.823527359962463,red,6,3,643.006323791957,800.942742169714,956.993676208043,399.057257830286,895.524681321058,836.431882914531,1052.5183575291,635.489140744817,956.993676208043,399.057257830286,704.475318678942,363.568117085469,547.481642470899,564.510859255183,643.006323791957,800.942742169714,0,0,0,0,0,4,horizontal,horizontal,vertical,horizontal,vertical,vertical
1c,1,100139,3,19,147,19,F,NA,variable,homogeneous,4,absent,0.752617835998535,1,vertical,vertical,1,0.729410576820374,green,1,NaN,915.767577433584,827.206663668034,NaN,NaN,915.767577433584,827.206663668034,1027.20666366803,484.232422566416,684.232422566416,372.793336331966,572.793336331966,715.767577433584,0,0,0,0,4,0,0,0,NaN,NaN,vertical,vertical,horizontal,horizontal,none,none
1c,1,100139,3,20,148,19,F,NA,variable,homogeneous,5,present,0.654953002929688,1,vertical,vertical,1,0.741175174713135,green,1,3,782.212099195248,854.378832816255,963.910840470068,404.658667004661,782.212099195248,854.378832816255,1036.43188291453,695.524681321058,963.910840470068,404.658667004661,664.870587620533,383.747735480111,552.574589799621,661.690083377915,0,0,4,0,0,0,0,NaN,vertical,vertical,horizontal,vertical,horizontal,none
1c,1,100139,3,21,149,19,F,NA,variable,homogeneous,6,present,1.15786910057068,1,vertical,vertical,1,1.09411311149597,red,5,4,545.03883773512,595.549636358493,676.373546837184,376.971974679454,923.626453162816,823.028025320546,1054.96116226488,604.450363641507,931.334709102064,381.422338320961,676.373546837184,376.971974679454,545.03883773512,595.549636358493,668.665290897936,818.577661679039,0,0,0,0,4,0,horizontal,horizontal,horizontal,horizontal,vertical,vertical
1c,1,100139,3,22,150,19,F,NA,variable,homogeneous,3,absent,0.597130060195923,1,vertical,vertical,1,0.78823356628418,green,1,NaN,610.498069503264,770.628304621509,NaN,NaN,610.498069503264,770.628304621509,1042.51941165526,678.799333565612,746.982518841471,350.57236181288,0,0,0,0,0,0,4,0,0,NaN,NaN,NaN,vertical,vertical,vertical,none,none,none
1c,1,100139,3,23,151,19,F,NA,variable,homogeneous,5,absent,0.830268859863281,1,vertical,vertical,1,0.670587587356567,red,2,NaN,1003.65205506206,753.462830903772,NaN,NaN,716.980120613425,841.107236777826,1003.65205506206,753.462830903772,1008.88377129369,453.738008730483,725.445215295702,356.142287229426,545.03883773512,595.549636358493,0,0,0,4,0,0,0,NaN,vertical,vertical,vertical,horizontal,vertical,none
1c,1,100139,3,24,152,19,F,NA,variable,homogeneous,5,absent,0.945319890975952,1,horizontal,horizontal,1,0.905879545211792,red,2,NaN,986.495193912888,773.909581815937,NaN,NaN,692.232343256122,831.108485694346,986.495193912888,773.909581815937,1023.02802532055,476.373546837184,751.343706178981,349.685068220846,546.900731331463,568.923317431687,0,0,0,4,0,0,0,NaN,vertical,horizontal,vertical,horizontal,vertical,none
1c,1,100139,3,25,153,19,F,NA,variable,homogeneous,4,present,1.17494320869446,1,vertical,vertical,1,0.929408740997314,green,2,4,1042.51941165526,678.799333565612,557.480588344736,521.200666434388,721.200666434388,842.519411655264,1042.51941165526,678.799333565612,878.799333565612,357.480588344736,557.480588344736,521.200666434388,0,0,0,0,0,4,0,0,NaN,NaN,horizontal,vertical,horizontal,vertical,none,none
1c,1,100139,3,26,154,19,F,NA,variable,homogeneous,4,present,0.817391157150269,1,horizontal,horizontal,1,0.941173338890076,green,1,3,907.767656743878,831.108485694346,692.232343256122,368.891514305654,907.767656743878,831.108485694346,1031.10848569435,492.232343256122,692.232343256122,368.891514305654,568.891514305654,707.767656743878,0,0,0,0,4,0,0,0,NaN,NaN,horizontal,horizontal,horizontal,horizontal,none,none
1c,1,100139,3,27,155,19,F,NA,variable,homogeneous,3,present,0.801172971725464,1,horizontal,horizontal,1,0.776468968391418,red,3,1,552.574589799621,538.309916622085,870.287525733335,845.121732464271,870.287525733335,845.121732464271,977.137884467044,416.568350913644,552.574589799621,538.309916622085,0,0,0,0,0,0,0,0,4,NaN,NaN,NaN,horizontal,vertical,horizontal,none,none,none
1c,1,100139,3,28,156,19,F,NA,variable,homogeneous,3,absent,1.14824891090393,1,horizontal,horizontal,1,0.729410576820374,red,1,NaN,956.993676208043,800.942742169714,NaN,NaN,956.993676208043,800.942742169714,895.524681321058,363.568117085469,547.481642470899,635.489140744817,0,0,0,0,0,0,4,0,0,NaN,NaN,NaN,horizontal,horizontal,vertical,none,none,none
1c,1,100139,3,29,157,19,F,NA,variable,homogeneous,3,present,0.638782024383545,1,horizontal,horizontal,1,0.988231730461121,red,2,3,1054.37883281626,617.787900804752,688.215357568785,370.807518193712,657.405809614959,811.404581001536,1054.37883281626,617.787900804752,688.215357568785,370.807518193712,0,0,0,0,0,0,0,4,0,NaN,NaN,NaN,vertical,horizontal,horizontal,none,none,none
1c,1,100139,3,30,158,19,F,NA,variable,homogeneous,6,present,1.05231523513794,1,vertical,vertical,1,0.811762762069702,green,5,4,646.537169096228,396.34794493794,899.636437764765,365.271262369628,700.363562235235,834.728737630372,953.462830903772,803.65205506206,1053.09926866854,568.923317431687,899.636437764765,365.271262369628,646.537169096228,396.34794493794,546.900731331463,631.076682568313,0,0,0,0,4,0,horizontal,horizontal,horizontal,vertical,vertical,vertical
1c,1,100139,3,31,159,19,F,NA,variable,homogeneous,5,present,0.57719898223877,1,horizontal,horizontal,1,0.776468968391418,red,4,1,639.523300282292,401.827779828472,813.345668841951,854.650531362416,813.345668841951,854.650531362416,1046.31108570371,665.998856501143,938.882953928832,386.139005173917,639.523300282292,401.827779828472,561.936991243214,691.383827134052,0,0,0,0,0,4,0,NaN,vertical,horizontal,horizontal,horizontal,vertical,none
1c,1,100139,3,32,160,19,F,NA,variable,homogeneous,3,present,0.504312992095947,1,vertical,vertical,1,0.764704370498657,green,3,1,664.870587620533,383.747735480111,680.284751489598,825.151636179026,680.284751489598,825.151636179026,1054.84466088987,591.100628340862,664.870587620533,383.747735480111,0,0,0,0,0,0,0,0,4,NaN,NaN,NaN,vertical,vertical,vertical,none,none,none
1c,1,100139,3,33,161,19,F,NA,variable,homogeneous,4,absent,0.621562004089355,1,vertical,vertical,1,0.976467132568359,green,3,NaN,746.982518841471,350.57236181288,NaN,NaN,853.017481158529,849.42763818712,1049.42763818712,546.982518841471,746.982518841471,350.57236181288,550.57236181288,653.017481158529,0,0,0,0,0,0,4,0,NaN,NaN,horizontal,vertical,vertical,horizontal,none,none
1c,1,100139,3,34,162,19,F,NA,variable,homogeneous,4,absent,1.1315770149231,0,horizontal,vertical,1,1.04705471992493,green,1,NaN,848.656293821019,850.314931779154,NaN,NaN,848.656293821019,850.314931779154,1050.31493177915,551.343706178981,751.343706178981,349.685068220846,549.685068220846,648.656293821019,0,0,0,0,4,0,0,0,NaN,NaN,horizontal,vertical,vertical,vertical,none,none
1c,1,100139,3,35,163,19,F,NA,variable,homogeneous,3,absent,0.738376140594482,1,vertical,vertical,1,1.01176092624664,green,3,NaN,622.862115532956,416.568350913644,NaN,NaN,729.712474266665,845.121732464271,1047.42541020038,538.309916622085,622.862115532956,416.568350913644,0,0,0,0,0,0,0,0,4,NaN,NaN,NaN,horizontal,vertical,vertical,none,none,none
1c,1,100139,3,36,164,19,F,NA,variable,homogeneous,5,absent,0.830457925796509,1,horizontal,horizontal,1,0.847056555747986,green,5,NaN,572.793336331966,715.767577433584,NaN,NaN,839.890788585259,851.86052685176,1051.86052685176,639.890788585259,915.767577433584,372.793336331966,619.68777079743,419.68777079743,572.793336331966,715.767577433584,0,0,0,0,0,0,4,NaN,horizontal,vertical,horizontal,vertical,horizontal,none
1c,1,100139,3,37,165,19,F,NA,variable,homogeneous,5,absent,0.830152988433838,1,vertical,vertical,1,0.941173338890076,green,3,NaN,983.431649086356,422.862115532956,NaN,NaN,755.719714694933,851.125977018113,1025.15163617903,719.715248510402,983.431649086356,422.862115532956,688.215357568785,370.807518193712,547.481642470899,635.489140744817,0,0,0,0,4,0,0,NaN,vertical,vertical,vertical,vertical,vertical,none
1c,1,100139,3,38,166,19,F,NA,variable,homogeneous,3,present,0.718117952346802,1,horizontal,horizontal,1,0.764704370498657,green,2,3,1052.5183575291,635.489140744817,704.475318678942,363.568117085469,643.006323791957,800.942742169714,1052.5183575291,635.489140744817,704.475318678942,363.568117085469,0,0,0,0,0,0,0,4,0,NaN,NaN,NaN,vertical,horizontal,vertical,none,none,none
1c,1,100139,3,39,167,19,F,NA,variable,homogeneous,3,present,0.906961917877197,1,vertical,vertical,1,0.905879545211792,red,1,2,791.100628340862,854.844660889869,1025.15163617903,480.284751489598,791.100628340862,854.844660889869,1025.15163617903,480.284751489598,583.747735480111,464.870587620533,0,0,0,0,0,0,4,0,0,NaN,NaN,NaN,vertical,vertical,vertical,none,none,none
1c,1,100139,3,40,168,19,F,NA,variable,homogeneous,3,absent,0.663086891174316,1,horizontal,horizontal,1,0.894114947319031,green,2,NaN,835.489140744817,347.4816424709,NaN,NaN,1000.94274216971,756.993676208043,835.489140744817,347.4816424709,563.568117085469,695.524681321058,0,0,0,0,0,0,0,4,0,NaN,NaN,NaN,horizontal,horizontal,vertical,none,none,none
1c,1,100139,3,41,169,19,F,NA,variable,homogeneous,4,present,1.02553296089172,1,vertical,vertical,1,0.647058391571045,red,4,3,545.155339110131,591.100628340862,808.899371659138,345.155339110131,791.100628340862,854.844660889869,1054.84466088987,608.899371659138,808.899371659138,345.155339110131,545.155339110131,591.100628340862,0,0,0,0,0,0,0,4,NaN,NaN,horizontal,horizontal,horizontal,vertical,none,none
1c,1,100139,3,42,170,19,F,NA,variable,homogeneous,3,absent,0.76683497428894,1,horizontal,horizontal,1,0.823527359962463,green,3,NaN,742.637481142314,351.535633479765,NaN,NaN,613.504806087112,773.909581815937,1043.85771277057,674.554784704298,742.637481142314,351.535633479765,0,0,0,0,0,0,0,0,4,NaN,NaN,NaN,horizontal,vertical,horizontal,none,none,none
1c,1,100139,3,43,171,19,F,NA,variable,homogeneous,3,absent,0.70185399055481,1,vertical,vertical,1,0.776468968391418,red,2,NaN,1034.72873763037,500.363562235235,NaN,NaN,768.923317431687,853.099268668537,1034.72873763037,500.363562235235,596.34794493794,446.537169096228,0,0,0,0,0,0,0,4,0,NaN,NaN,NaN,horizontal,vertical,horizontal,none,none,none
1c,1,100139,3,44,172,19,F,NA,variable,homogeneous,4,absent,0.979197025299072,1,vertical,vertical,1,0.952937936782837,red,1,NaN,938.882953928832,813.860994826083,NaN,NaN,938.882953928832,813.860994826083,1013.86099482608,461.117046071168,661.117046071168,386.139005173917,586.139005173917,738.882953928832,0,0,0,0,4,0,0,0,NaN,NaN,vertical,horizontal,horizontal,horizontal,none,none
1c,1,100139,3,45,173,19,F,NA,variable,homogeneous,4,present,1.33074116706848,1,horizontal,horizontal,1,0.78823356628418,green,4,3,561.936991243214,691.383827134052,708.616172865948,361.936991243214,891.383827134052,838.063008756786,1038.06300875679,508.616172865948,708.616172865948,361.936991243214,561.936991243214,691.383827134052,0,0,0,0,0,0,0,4,NaN,NaN,vertical,vertical,vertical,horizontal,none,none
1c,1,100139,3,46,174,19,F,NA,variable,homogeneous,6,present,1.05491709709167,1,horizontal,horizontal,1,0.870585751533508,red,1,6,891.383827134052,838.063008756786,639.523300282292,798.172220171528,891.383827134052,838.063008756786,1051.86052685176,639.890788585259,960.476699717708,401.827779828472,708.616172865948,361.936991243214,548.13947314824,560.109211414741,639.523300282292,798.172220171528,4,0,0,0,0,0,horizontal,horizontal,horizontal,vertical,vertical,vertical
1c,1,100139,3,47,175,19,F,NA,variable,homogeneous,5,absent,0.952965974807739,1,horizontal,horizontal,1,0.835291957855225,green,4,NaN,786.654331158049,345.349468637584,NaN,NaN,661.117046071168,813.860994826083,960.476699717708,798.172220171528,1038.06300875679,508.616172865948,786.654331158049,345.349468637584,553.688914296288,534.001143498857,0,0,0,0,0,4,0,NaN,horizontal,horizontal,horizontal,horizontal,horizontal,none
1c,1,100139,3,48,176,19,F,NA,variable,homogeneous,5,present,0.968864917755127,1,horizontal,horizontal,1,0.635293793678284,green,2,3,1050.31493177915,648.656293821019,923.626453162816,376.971974679454,831.076682568313,853.099268668537,1050.31493177915,648.656293821019,923.626453162816,376.971974679454,626.090418184063,413.504806087112,568.891514305654,707.767656743878,0,0,0,4,0,0,0,NaN,vertical,horizontal,vertical,vertical,horizontal,none
1c,1,100139,3,49,177,19,F,NA,variable,homogeneous,3,present,1.15253210067749,1,horizontal,horizontal,1,0.999996328353882,green,1,2,861.690083377915,847.425410200379,983.431649086356,422.862115532956,861.690083377915,847.425410200379,983.431649086356,422.862115532956,554.878267535729,529.712474266665,0,0,0,0,0,0,4,0,0,NaN,NaN,NaN,horizontal,vertical,horizontal,none,none,none
1c,1,100139,3,50,178,19,F,NA,variable,homogeneous,6,absent,0.719799995422363,1,horizontal,horizontal,1,1.01176092624664,green,5,NaN,551.535633479765,542.637481142314,NaN,NaN,874.554784704298,843.857712770574,1048.46436652023,657.362518857686,973.909581815937,413.504806087112,725.445215295702,356.142287229426,551.535633479765,542.637481142314,626.090418184063,786.495193912888,0,0,0,0,4,0,vertical,horizontal,horizontal,horizontal,horizontal,vertical
1c,1,100139,3,51,179,19,F,NA,variable,homogeneous,4,absent,0.698510885238647,1,horizontal,horizontal,1,0.988231730461121,red,3,NaN,931.334709102064,381.422338320961,NaN,NaN,668.665290897936,818.577661679039,1018.57766167904,731.334709102064,931.334709102064,381.422338320961,581.422338320961,468.665290897936,0,0,0,0,0,0,4,0,NaN,NaN,vertical,vertical,horizontal,vertical,none,none
1c,1,100139,3,52,180,19,F,NA,variable,homogeneous,4,absent,0.593425989151001,1,horizontal,horizontal,1,1.04705471992493,red,4,NaN,565.271262369628,500.363562235235,NaN,NaN,700.363562235235,834.728737630372,1034.72873763037,699.636437764765,899.636437764765,365.271262369628,565.271262369628,500.363562235235,0,0,0,0,0,0,0,4,NaN,NaN,vertical,vertical,horizontal,horizontal,none,none
1c,1,100139,3,53,181,19,F,NA,variable,homogeneous,6,absent,0.757538795471191,1,horizontal,horizontal,1,1.01176092624664,red,3,NaN,938.882953928832,386.139005173917,NaN,NaN,915.767577433584,827.206663668034,1054.65053136242,613.345668841951,938.882953928832,386.139005173917,684.232422566416,372.793336331966,545.349468637584,586.654331158049,661.117046071168,813.860994826083,0,0,4,0,0,0,vertical,vertical,horizontal,horizontal,horizontal,horizontal
1c,1,100139,3,54,182,19,F,NA,variable,homogeneous,6,absent,0.910814046859741,1,vertical,vertical,1,1.08234851360321,green,4,NaN,696.282156015671,367.045908301137,NaN,NaN,903.717843984329,832.954091698863,1053.60308331891,626.654758133252,949.885239334581,393.700666434388,696.282156015671,367.045908301137,546.39691668109,573.345241866748,650.114760665419,806.299333565612,0,0,0,4,0,0,vertical,horizontal,vertical,vertical,horizontal,vertical
1c,1,100139,3,55,183,19,F,NA,variable,homogeneous,5,absent,1.25890779495239,1,vertical,vertical,1,0.670587587356567,red,5,NaN,549.685068220846,551.343706178981,NaN,NaN,676.373546837184,823.028025320546,973.909581815937,786.495193912888,1031.10848569435,492.232343256122,768.923317431687,346.900731331463,549.685068220846,551.343706178981,0,0,0,0,0,0,4,NaN,horizontal,horizontal,vertical,horizontal,vertical,none
1c,1,100139,3,56,184,19,F,NA,variable,homogeneous,3,present,1.09495306015015,1,vertical,vertical,1,0.941173338890076,green,2,3,1051.86052685176,639.890788585259,708.616172865948,361.936991243214,639.523300282292,798.172220171528,1051.86052685176,639.890788585259,708.616172865948,361.936991243214,0,0,0,0,0,0,0,4,0,NaN,NaN,NaN,vertical,vertical,vertical,none,none,none
1c,1,100139,3,57,185,19,F,NA,variable,homogeneous,6,absent,1.17457699775696,1,horizontal,horizontal,1,1.07058391571045,red,2,NaN,963.910840470068,795.341332995339,NaN,NaN,712.784863451954,839.621618300407,963.910840470068,795.341332995339,1051.12597701811,555.719714694933,887.215136548046,360.378381699593,636.089159529932,404.658667004661,548.874022981887,644.280285305067,0,4,0,0,0,0,vertical,horizontal,vertical,horizontal,horizontal,vertical
1c,1,100139,3,58,186,19,F,NA,variable,homogeneous,4,present,0.900962829589844,1,horizontal,horizontal,1,0.952937936782837,red,2,1,1053.60308331891,626.654758133252,773.345241866748,853.60308331891,773.345241866748,853.60308331891,1053.60308331891,626.654758133252,826.654758133252,346.39691668109,546.39691668109,573.345241866748,0,0,0,0,0,4,0,0,NaN,NaN,horizontal,horizontal,horizontal,horizontal,none,none
1c,1,100139,3,59,187,19,F,NA,variable,homogeneous,5,absent,1.07819294929504,1,vertical,vertical,1,0.741175174713135,green,5,NaN,557.480588344736,678.799333565612,NaN,NaN,800,855,1042.51941165526,678.799333565612,949.885239334581,393.700666434388,650.114760665419,393.700666434388,557.480588344736,678.799333565612,0,0,0,0,0,0,4,NaN,vertical,vertical,vertical,horizontal,vertical,none
1c,1,100139,3,60,188,19,F,NA,variable,homogeneous,3,absent,0.977672100067139,1,horizontal,horizontal,1,1.08234851360321,red,3,NaN,591.116228706307,453.738008730483,NaN,NaN,777.775285599347,854.029648013395,1031.10848569435,492.232343256122,591.116228706307,453.738008730483,0,0,0,0,0,0,0,0,4,NaN,NaN,NaN,horizontal,horizontal,horizontal,none,none,none
1c,1,100139,3,61,189,19,F,NA,variable,homogeneous,4,present,0.61888599395752,1,horizontal,horizontal,1,0.682352185249329,red,4,3,591.116228706307,453.738008730483,946.261991269517,391.116228706307,653.738008730483,808.883771293693,1008.88377129369,746.261991269517,946.261991269517,391.116228706307,591.116228706307,453.738008730483,0,0,0,0,0,0,0,4,NaN,NaN,horizontal,horizontal,horizontal,horizontal,none,none
1c,1,100139,3,62,190,19,F,NA,variable,homogeneous,6,absent,0.967367172241211,1,vertical,vertical,1,0.78823356628418,red,4,NaN,795.549636358493,345.03883773512,NaN,NaN,804.450363641507,854.96116226488,1023.02802532055,723.626453162816,1018.57766167904,468.665290897936,795.549636358493,345.03883773512,576.971974679454,476.373546837184,581.422338320961,731.334709102064,0,0,0,4,0,0,horizontal,vertical,horizontal,vertical,horizontal,horizontal
1c,1,100139,3,63,191,19,F,NA,variable,homogeneous,5,present,1.10980486869812,1,horizontal,horizontal,1,0.752939772605896,green,2,5,1011.40458100154,742.594190385041,545.155339110131,608.899371659138,729.712474266665,845.121732464271,1011.40458100154,742.594190385041,1000.94274216971,443.006323791957,712.784863451954,360.378381699593,545.155339110131,608.899371659138,0,0,0,4,0,0,0,NaN,horizontal,horizontal,horizontal,horizontal,horizontal,none
1c,1,100139,3,64,192,19,F,NA,variable,homogeneous,5,absent,1.32704401016235,1,horizontal,horizontal,1,0.729410576820374,red,5,NaN,596.34794493794,753.462830903772,NaN,NaN,883.019879386575,841.107236777826,1054.96116226488,595.549636358493,874.554784704298,356.142287229426,591.116228706307,453.738008730483,596.34794493794,753.462830903772,0,0,0,0,0,0,4,NaN,horizontal,vertical,vertical,horizontal,horizontal,none
1c,1,100139,4,1,193,19,F,NA,variable,homogeneous,6,present,1.48083400726318,1,vertical,vertical,1,1.03529012203217,green,6,5,551.535633479765,657.362518857686,626.090418184063,413.504806087112,725.445215295702,843.857712770574,973.909581815937,786.495193912888,1048.46436652023,542.637481142314,874.554784704298,356.142287229426,626.090418184063,413.504806087112,551.535633479765,657.362518857686,0,0,0,0,0,4,vertical,vertical,horizontal,vertical,horizontal,vertical
1c,1,100139,4,2,194,19,F,NA,variable,homogeneous,3,present,0.863961935043335,1,horizontal,horizontal,1,0.670587587356567,red,3,2,791.100628340862,345.155339110131,1025.15163617903,719.715248510402,583.747735480111,735.129412379467,1025.15163617903,719.715248510402,791.100628340862,345.155339110131,0,0,0,0,0,0,0,0,4,NaN,NaN,NaN,vertical,vertical,horizontal,none,none,none
1c,1,100139,4,3,195,19,F,NA,variable,homogeneous,5,absent,0.836493015289307,1,vertical,vertical,1,0.964702534675598,green,2,NaN,977.137884467044,783.431649086356,NaN,NaN,680.284751489598,825.151636179026,977.137884467044,783.431649086356,1029.19248180629,488.215357568785,764.510859255183,347.4816424709,548.874022981887,555.719714694933,0,0,0,4,0,0,0,NaN,horizontal,vertical,vertical,vertical,vertical,none
1c,1,100139,4,4,196,19,F,NA,variable,homogeneous,6,absent,0.690157890319824,1,vertical,vertical,1,0.835291957855225,red,2,NaN,1054.84466088987,608.899371659138,NaN,NaN,919.715248510402,825.151636179026,1054.84466088987,608.899371659138,935.129412379467,383.747735480111,680.284751489598,374.848363820974,545.155339110131,591.100628340862,664.870587620533,816.252264519889,0,4,0,0,0,0,horizontal,vertical,horizontal,horizontal,vertical,vertical
1c,1,100139,4,5,197,19,F,NA,variable,homogeneous,6,present,1.0248601436615,1,horizontal,horizontal,1,1.03529012203217,green,4,5,919.715248510402,374.848363820974,664.870587620533,383.747735480111,680.284751489598,825.151636179026,935.129412379467,816.252264519889,1054.84466088987,591.100628340862,919.715248510402,374.848363820974,664.870587620533,383.747735480111,545.155339110131,608.899371659138,0,0,0,4,0,0,horizontal,horizontal,vertical,horizontal,horizontal,vertical
1c,1,100139,4,6,198,19,F,NA,variable,homogeneous,5,present,1.34819793701172,1,horizontal,horizontal,1,0.929408740997314,red,4,3,586.139005173917,461.117046071168,865.998856501143,353.688914296288,891.383827134052,838.063008756786,1054.65053136242,586.654331158049,865.998856501143,353.688914296288,586.139005173917,461.117046071168,601.827779828472,760.476699717708,0,0,0,0,0,4,0,NaN,horizontal,vertical,horizontal,horizontal,vertical,none
1c,1,100139,4,7,199,19,F,NA,variable,homogeneous,3,present,1.13884782791138,1,horizontal,horizontal,1,0.776468968391418,green,3,1,643.006323791957,399.057257830286,704.475318678942,836.431882914531,704.475318678942,836.431882914531,1052.5183575291,564.510859255183,643.006323791957,399.057257830286,0,0,0,0,0,0,0,0,4,NaN,NaN,NaN,vertical,horizontal,horizontal,none,none,none
1c,1,100139,4,8,200,19,F,NA,variable,homogeneous,4,absent,1.03348398208618,1,horizontal,horizontal,1,0.78823356628418,red,1,NaN,878.799333565612,842.519411655264,NaN,NaN,878.799333565612,842.519411655264,1042.51941165526,521.200666434388,721.200666434388,357.480588344736,557.480588344736,678.799333565612,0,0,0,0,4,0,0,0,NaN,NaN,horizontal,horizontal,vertical,vertical,none,none
1c,1,100139,4,9,201,19,F,NA,variable,homogeneous,5,present,1.19870114326477,1,vertical,vertical,1,1.0235255241394,green,5,4,561.936991243214,691.383827134052,639.523300282292,401.827779828472,813.345668841951,854.650531362416,1046.31108570371,665.998856501143,938.882953928832,386.139005173917,639.523300282292,401.827779828472,561.936991243214,691.383827134052,0,0,0,0,0,0,4,NaN,horizontal,vertical,horizontal,horizontal,vertical,none
1c,1,100139,4,10,202,19,F,NA,variable,homogeneous,3,absent,0.753437042236328,1,vertical,vertical,1,0.929408740997314,green,1,NaN,786.654331158049,854.650531362416,NaN,NaN,786.654331158049,854.650531362416,1027.20666366803,484.232422566416,586.139005173917,461.117046071168,0,0,0,0,0,0,4,0,0,NaN,NaN,NaN,vertical,vertical,horizontal,none,none,none
1c,1,100139,4,11,203,19,F,NA,variable,homogeneous,3,present,0.734319925308228,1,vertical,vertical,1,0.870585751533508,green,3,2,650.114760665419,393.700666434388,1053.60308331891,573.345241866748,696.282156015671,832.954091698863,1053.60308331891,573.345241866748,650.114760665419,393.700666434388,0,0,0,0,0,0,0,0,4,NaN,NaN,NaN,vertical,vertical,vertical,none,none,none
1c,1,100139,4,12,204,19,F,NA,variable,homogeneous,3,absent,1.11362504959106,0,horizontal,vertical,1,0.623529195785522,red,3,NaN,586.139005173917,461.117046071168,NaN,NaN,786.654331158049,854.650531362416,1027.20666366803,484.232422566416,586.139005173917,461.117046071168,0,0,0,0,0,0,0,0,4,NaN,NaN,NaN,vertical,vertical,horizontal,none,none,none
1c,1,100139,4,13,205,19,F,NA,variable,homogeneous,3,present,1.166090965271,1,horizontal,horizontal,1,0.894114947319031,green,3,2,558.892763222174,516.980120613425,992.450942956807,432.704947607421,848.656293821019,850.314931779154,992.450942956807,432.704947607421,558.892763222174,516.980120613425,0,0,0,0,0,0,0,0,4,NaN,NaN,NaN,vertical,vertical,horizontal,none,none,none
1c,1,100139,4,14,206,19,F,NA,variable,homogeneous,5,present,1.09824895858765,1,vertical,vertical,1,0.635293793678284,red,2,3,1008.88377129369,746.261991269517,1003.65205506206,446.537169096228,725.445215295702,843.857712770574,1008.88377129369,746.261991269517,1003.65205506206,446.537169096228,716.980120613425,358.892763222174,545.03883773512,604.450363641507,0,0,0,4,0,0,0,NaN,vertical,vertical,horizontal,vertical,vertical,none
1c,1,100139,4,15,207,19,F,NA,variable,homogeneous,3,absent,1.56381916999817,1,vertical,vertical,1,0.764704370498657,green,2,NaN,1043.85771277057,674.554784704298,NaN,NaN,613.504806087112,773.909581815937,1043.85771277057,674.554784704298,742.637481142314,351.535633479765,0,0,0,0,0,0,0,4,0,NaN,NaN,NaN,horizontal,vertical,horizontal,none,none,none
1c,1,100139,4,16,208,19,F,NA,variable,homogeneous,4,present,1.08084106445312,1,horizontal,horizontal,1,1.08234851360321,red,4,2,545.970351986605,622.224714400653,1054.0296480134,577.775285599347,822.224714400653,854.029648013395,1054.0296480134,577.775285599347,777.775285599347,345.970351986605,545.970351986605,622.224714400653,0,0,0,0,0,0,0,4,NaN,NaN,vertical,horizontal,vertical,horizontal,none,none
1c,1,100139,4,17,209,19,F,NA,variable,homogeneous,3,absent,1.14601898193359,1,horizontal,horizontal,1,0.964702534675598,green,2,NaN,1020.83647796503,472.5,NaN,NaN,800,855,1020.83647796503,472.5,579.163522034968,472.5,0,0,0,0,0,0,0,4,0,NaN,NaN,NaN,vertical,horizontal,horizontal,none,none,none
1c,1,100139,4,18,210,19,F,NA,variable,homogeneous,6,present,1.38991594314575,1,vertical,vertical,1,0.635293793678284,red,2,5,1045.12173246427,670.287525733335,554.878267535729,529.712474266665,861.690083377915,847.425410200379,1045.12173246427,670.287525733335,983.431649086356,422.862115532956,738.309916622085,352.574589799621,554.878267535729,529.712474266665,616.568350913644,777.137884467044,0,4,0,0,0,0,horizontal,vertical,horizontal,vertical,horizontal,horizontal
1c,1,100139,4,19,211,19,F,NA,variable,homogeneous,3,absent,0.638453006744385,1,vertical,vertical,1,0.823527359962463,red,2,NaN,861.690083377915,352.574589799621,NaN,NaN,983.431649086356,777.137884467044,861.690083377915,352.574589799621,554.878267535729,670.287525733335,0,0,0,0,0,0,0,4,0,NaN,NaN,NaN,vertical,vertical,vertical,none,none,none
1c,1,100139,4,20,212,19,F,NA,variable,homogeneous,6,absent,0.948881149291992,1,horizontal,horizontal,1,0.88235034942627,green,6,NaN,646.537169096228,803.65205506206,NaN,NaN,899.636437764765,834.728737630372,1053.09926866854,631.076682568313,953.462830903772,396.34794493794,700.363562235235,365.271262369628,546.900731331463,568.923317431687,646.537169096228,803.65205506206,0,0,0,0,0,4,horizontal,vertical,horizontal,horizontal,horizontal,horizontal
1c,1,100139,4,21,213,19,F,NA,variable,homogeneous,6,absent,0.883136987686157,1,vertical,vertical,1,0.952937936782837,green,1,NaN,848.656293821019,850.314931779154,NaN,NaN,848.656293821019,850.314931779154,1041.10723677783,683.019879386575,992.450942956807,432.704947607421,751.343706178981,349.685068220846,558.892763222174,516.980120613425,607.549057043193,767.295052392579,4,0,0,0,0,0,vertical,vertical,vertical,horizontal,vertical,horizontal
1c,1,100139,4,22,214,19,F,NA,variable,homogeneous,4,present,0.911648988723755,1,horizontal,horizontal,1,0.741175174713135,green,3,4,887.215136548046,360.378381699593,560.378381699593,512.784863451954,712.784863451954,839.621618300407,1039.62161830041,687.215136548046,887.215136548046,360.378381699593,560.378381699593,512.784863451954,0,0,0,0,0,0,4,0,NaN,NaN,horizontal,vertical,horizontal,horizontal,none,none
1c,1,100139,4,23,215,19,F,NA,variable,homogeneous,5,present,1.74982810020447,1,vertical,vertical,1,0.78823356628418,red,5,1,554.878267535729,529.712474266665,657.405809614959,811.404581001536,657.405809614959,811.404581001536,956.993676208043,800.942742169714,1039.62161830041,512.784863451954,791.100628340862,345.155339110131,554.878267535729,529.712474266665,0,0,0,0,0,0,4,NaN,vertical,horizontal,horizontal,vertical,vertical,none
1c,1,100139,4,24,216,19,F,NA,variable,homogeneous,6,absent,0.678983926773071,1,vertical,vertical,1,1.09411311149597,red,6,NaN,545.155339110131,608.899371659138,NaN,NaN,680.284751489598,825.151636179026,935.129412379467,816.252264519889,1054.84466088987,591.100628340862,919.715248510402,374.848363820974,664.870587620533,383.747735480111,545.155339110131,608.899371659138,0,0,0,0,0,4,horizontal,horizontal,horizontal,vertical,horizontal,vertical
1c,1,100139,4,25,217,19,F,NA,variable,homogeneous,6,absent,1.31665182113647,1,horizontal,horizontal,1,0.999996328353882,green,4,NaN,891.383827134052,361.936991243214,NaN,NaN,708.616172865948,838.063008756786,960.476699717708,798.172220171528,1051.86052685176,560.109211414741,891.383827134052,361.936991243214,639.523300282292,401.827779828472,548.13947314824,639.890788585259,0,0,0,4,0,0,vertical,horizontal,horizontal,horizontal,horizontal,vertical
1c,1,100139,4,26,218,19,F,NA,variable,homogeneous,6,absent,0.941051006317139,1,horizontal,horizontal,1,0.69411678314209,red,2,NaN,1051.86052685176,639.890788585259,NaN,NaN,891.383827134052,838.063008756786,1051.86052685176,639.890788585259,960.476699717708,401.827779828472,708.616172865948,361.936991243214,548.13947314824,560.109211414741,639.523300282292,798.172220171528,0,4,0,0,0,0,vertical,horizontal,vertical,vertical,horizontal,vertical
1c,1,100139,4,27,219,19,F,NA,variable,homogeneous,6,absent,0.776908159255981,1,vertical,vertical,1,0.635293793678284,green,3,NaN,1038.06300875679,508.616172865948,NaN,NaN,760.109211414741,851.86052685176,998.172220171528,760.476699717708,1038.06300875679,508.616172865948,839.890788585259,348.13947314824,601.827779828472,439.523300282291,561.936991243214,691.383827134052,0,0,4,0,0,0,horizontal,vertical,vertical,vertical,vertical,vertical
1c,1,100139,4,28,220,19,F,NA,variable,homogeneous,6,absent,NaN,0,horizontal,none,0,1.01176092624664,red,4,NaN,878.799333565612,357.480588344736,NaN,NaN,721.200666434388,842.519411655264,970.628304621509,789.501930496736,1049.42763818712,546.982518841471,878.799333565612,357.480588344736,629.371695378491,410.498069503264,550.57236181288,653.017481158529,0,0,0,4,0,0,vertical,vertical,vertical,horizontal,vertical,horizontal
1c,1,100139,4,29,221,19,F,NA,variable,homogeneous,4,absent,NaN,0,horizontal,none,0,0.729410576820374,green,1,NaN,619.68777079743,780.31222920257,NaN,NaN,619.68777079743,780.31222920257,980.31222920257,780.31222920257,980.31222920257,419.68777079743,619.68777079743,419.68777079743,0,0,0,0,4,0,0,0,NaN,NaN,horizontal,vertical,vertical,horizontal,none,none
1c,1,100139,4,30,222,19,F,NA,variable,homogeneous,6,present,1.05252599716187,1,vertical,vertical,1,0.611764597892761,red,1,5,848.656293821019,850.314931779154,558.892763222174,516.980120613425,848.656293821019,850.314931779154,1041.10723677783,683.019879386575,992.450942956807,432.704947607421,751.343706178981,349.685068220846,558.892763222174,516.980120613425,607.549057043193,767.295052392579,4,0,0,0,0,0,vertical,horizontal,vertical,horizontal,vertical,vertical
1c,1,100139,4,31,223,19,F,NA,variable,homogeneous,5,absent,0.905206918716431,1,horizontal,horizontal,1,0.976467132568359,green,1,NaN,853.017481158529,849.42763818712,NaN,NaN,853.017481158529,849.42763818712,1053.60308331891,626.654758133252,903.717843984329,367.045908301137,610.498069503264,429.371695378491,579.163522034968,727.5,0,0,4,0,0,0,0,NaN,horizontal,vertical,horizontal,vertical,horizontal,none
1c,1,100139,4,32,224,19,F,NA,variable,homogeneous,4,absent,0.89070200920105,1,horizontal,horizontal,1,0.952937936782837,green,2,NaN,1054.0296480134,622.224714400653,NaN,NaN,777.775285599347,854.029648013395,1054.0296480134,622.224714400653,822.224714400653,345.970351986605,545.970351986605,577.775285599347,0,0,0,0,0,4,0,0,NaN,NaN,vertical,horizontal,vertical,vertical,none,none
1c,1,100139,4,33,225,19,F,NA,variable,homogeneous,4,present,0.862920999526978,1,horizontal,horizontal,1,0.717645978927612,red,1,4,887.215136548046,839.621618300407,560.378381699593,687.215136548046,887.215136548046,839.621618300407,1039.62161830041,512.784863451954,712.784863451954,360.378381699593,560.378381699593,687.215136548046,0,0,0,0,4,0,0,0,NaN,NaN,horizontal,horizontal,horizontal,horizontal,none,none
1c,1,100139,4,34,226,19,F,NA,variable,homogeneous,5,absent,0.699077129364014,1,vertical,vertical,1,0.941173338890076,red,2,NaN,1029.19248180629,711.784642431215,NaN,NaN,764.510859255183,852.518357529101,1029.19248180629,711.784642431215,977.137884467044,416.568350913644,680.284751489598,374.848363820974,548.874022981887,644.280285305067,0,0,0,4,0,0,0,NaN,vertical,vertical,vertical,horizontal,vertical,none
1c,1,100139,4,35,227,19,F,NA,variable,homogeneous,4,absent,0.836741209030151,1,vertical,vertical,1,0.964702534675598,green,1,NaN,751.343706178981,850.314931779154,NaN,NaN,751.343706178981,850.314931779154,1050.31493177915,648.656293821019,848.656293821019,349.685068220846,549.685068220846,551.343706178981,0,0,0,0,4,0,0,0,NaN,NaN,vertical,horizontal,vertical,horizontal,none,none
1c,1,100139,4,36,228,19,F,NA,variable,homogeneous,5,absent,1.10627102851868,1,horizontal,horizontal,1,0.835291957855225,red,4,NaN,610.498069503264,429.371695378491,NaN,NaN,853.017481158529,849.42763818712,1053.60308331891,626.654758133252,903.717843984329,367.045908301137,610.498069503264,429.371695378491,579.163522034968,727.5,0,0,0,0,0,4,0,NaN,vertical,horizontal,vertical,horizontal,horizontal,none
1c,1,100139,4,37,229,19,F,NA,variable,homogeneous,5,present,0.741256952285767,1,horizontal,horizontal,1,0.623529195785522,green,4,1,696.282156015671,367.045908301137,746.982518841471,849.42763818712,746.982518841471,849.42763818712,1020.83647796503,727.5,989.501930496736,429.371695378491,696.282156015671,367.045908301137,546.39691668109,626.654758133252,0,0,0,0,0,4,0,NaN,horizontal,vertical,horizontal,horizontal,horizontal,none
1c,1,100139,4,38,230,19,F,NA,variable,homogeneous,4,present,0.592061042785645,1,vertical,vertical,1,0.78823356628418,green,3,1,725.445215295702,356.142287229426,874.554784704298,843.857712770574,874.554784704298,843.857712770574,1043.85771277057,525.445215295702,725.445215295702,356.142287229426,556.142287229426,674.554784704298,0,0,0,0,0,0,4,0,NaN,NaN,horizontal,vertical,vertical,vertical,none,none
1c,1,100139,4,39,231,19,F,NA,variable,homogeneous,4,present,1.54398703575134,1,vertical,vertical,1,0.799998164176941,red,1,2,619.68777079743,780.31222920257,980.31222920257,780.31222920257,619.68777079743,780.31222920257,980.31222920257,780.31222920257,980.31222920257,419.68777079743,619.68777079743,419.68777079743,0,0,0,0,4,0,0,0,NaN,NaN,vertical,horizontal,horizontal,horizontal,none,none
1c,1,100139,4,40,232,19,F,NA,variable,homogeneous,5,absent,1.12678408622742,1,vertical,vertical,1,0.976467132568359,green,4,NaN,768.923317431687,346.900731331463,NaN,NaN,676.373546837184,823.028025320546,973.909581815937,786.495193912888,1031.10848569435,492.232343256122,768.923317431687,346.900731331463,549.685068220846,551.343706178981,0,0,0,0,0,4,0,NaN,vertical,vertical,vertical,vertical,vertical,none
1c,1,100139,4,41,233,19,F,NA,variable,homogeneous,4,absent,1.15283799171448,1,horizontal,horizontal,1,0.764704370498657,red,4,NaN,553.688914296288,665.998856501143,NaN,NaN,865.998856501143,846.311085703712,1046.31108570371,534.001143498857,734.001143498857,353.688914296288,553.688914296288,665.998856501143,0,0,0,0,0,0,0,4,NaN,NaN,horizontal,horizontal,vertical,horizontal,none,none
1c,1,100139,4,42,234,19,F,NA,variable,homogeneous,4,present,1.70418810844421,1,horizontal,horizontal,1,0.811762762069702,green,2,1,1011.40458100154,457.40580961496,942.594190385041,811.404581001536,942.594190385041,811.404581001536,1011.40458100154,457.40580961496,657.405809614959,388.595418998464,588.595418998464,742.594190385041,0,0,0,0,0,4,0,0,NaN,NaN,horizontal,horizontal,vertical,horizontal,none,none
1c,1,100139,4,43,235,19,F,NA,variable,homogeneous,5,absent,1.13438200950623,1,vertical,vertical,1,0.799998164176941,red,3,NaN,857.362518857686,351.535633479765,NaN,NaN,899.636437764765,834.728737630372,1054.0296480134,577.775285599347,857.362518857686,351.535633479765,581.422338320961,468.665290897936,607.549057043193,767.295052392579,0,0,0,0,4,0,0,NaN,horizontal,horizontal,vertical,vertical,horizontal,none
1c,1,100139,4,44,236,19,F,NA,variable,homogeneous,4,present,0.80322790145874,1,vertical,vertical,1,0.69411678314209,red,1,3,668.665290897936,818.577661679039,931.334709102064,381.422338320961,668.665290897936,818.577661679039,1018.57766167904,731.334709102064,931.334709102064,381.422338320961,581.422338320961,468.665290897936,0,0,0,0,4,0,0,0,NaN,NaN,vertical,horizontal,horizontal,horizontal,none,none
1c,1,100139,4,45,237,19,F,NA,variable,homogeneous,5,present,1.43042802810669,1,horizontal,horizontal,1,0.752939772605896,green,1,3,668.665290897936,818.577661679039,1034.72873763037,500.363562235235,668.665290897936,818.577661679039,967.295052392579,792.450942956807,1034.72873763037,500.363562235235,777.775285599347,345.970351986605,551.535633479765,542.637481142314,0,0,4,0,0,0,0,NaN,horizontal,vertical,horizontal,horizontal,vertical,none
1c,1,100139,4,46,238,19,F,NA,variable,homogeneous,5,absent,1.59262919425964,1,horizontal,horizontal,1,1.05881931781769,red,2,NaN,983.431649086356,777.137884467044,NaN,NaN,688.215357568785,829.192481806288,983.431649086356,777.137884467044,1025.15163617903,480.284751489598,755.719714694933,348.874022981887,547.481642470899,564.510859255183,0,0,0,4,0,0,0,NaN,vertical,horizontal,vertical,vertical,horizontal,none
1c,1,100139,4,47,239,19,F,NA,variable,homogeneous,4,absent,1.18121004104614,1,vertical,vertical,1,1.03529012203217,red,2,NaN,1034.72873763037,500.363562235235,NaN,NaN,899.636437764765,834.728737630372,1034.72873763037,500.363562235235,700.363562235235,365.271262369628,565.271262369628,699.636437764765,0,0,0,0,0,4,0,0,NaN,NaN,horizontal,vertical,vertical,vertical,none,none
1c,1,100139,4,48,240,19,F,NA,variable,homogeneous,3,present,1.41156411170959,1,vertical,vertical,1,0.917644143104553,red,3,2,567.045908301137,703.717843984329,826.654758133252,346.39691668109,1006.29933356561,749.885239334581,826.654758133252,346.39691668109,567.045908301137,703.717843984329,0,0,0,0,0,0,0,0,4,NaN,NaN,NaN,vertical,horizontal,vertical,none,none,none
1c,1,100139,4,49,241,19,F,NA,variable,homogeneous,6,present,1.15504217147827,1,horizontal,horizontal,1,0.752939772605896,green,5,6,622.862115532956,416.568350913644,552.574589799621,661.690083377915,729.712474266665,845.121732464271,977.137884467044,783.431649086356,1047.42541020038,538.309916622085,870.287525733335,354.878267535729,622.862115532956,416.568350913644,552.574589799621,661.690083377915,0,0,0,0,4,0,vertical,horizontal,vertical,vertical,horizontal,vertical
1c,1,100139,4,50,242,19,F,NA,variable,homogeneous,3,present,1.95428705215454,1,horizontal,horizontal,1,1.01176092624664,red,2,3,1046.31108570371,665.998856501143,734.001143498857,353.688914296288,619.68777079743,780.31222920257,1046.31108570371,665.998856501143,734.001143498857,353.688914296288,0,0,0,0,0,0,0,4,0,NaN,NaN,NaN,horizontal,horizontal,vertical,none,none,none
1c,1,100139,4,51,243,19,F,NA,variable,homogeneous,3,absent,1.7165539264679,1,vertical,vertical,1,0.929408740997314,red,2,NaN,848.656293821019,349.685068220846,NaN,NaN,992.450942956807,767.295052392579,848.656293821019,349.685068220846,558.892763222174,683.019879386575,0,0,0,0,0,0,0,4,0,NaN,NaN,NaN,horizontal,vertical,vertical,none,none,none
1c,1,100139,4,52,244,19,F,NA,variable,homogeneous,5,present,1.05599808692932,1,vertical,vertical,1,0.835291957855225,green,4,2,601.827779828472,439.523300282291,1054.65053136242,613.345668841951,865.998856501143,846.311085703712,1054.65053136242,613.345668841951,891.383827134052,361.936991243214,601.827779828472,439.523300282291,586.139005173917,738.882953928832,0,0,0,0,0,4,0,NaN,vertical,horizontal,vertical,vertical,vertical,none
