experiment,subject,uniqueID,block,trial,trial_cumulative,age,gender,color_cond_blocking,color_history,shape_type,set_size,distractor,rt,acc,target_orient,response_key,response_made,iti,target_color,target_item,distractor_item,target_X,target_Y,distractor_X,distractor_Y,item1_X,item1_Y,item2_X,item2_Y,item3_X,item3_Y,item4_X,item4_Y,item5_X,item5_Y,item6_X,item6_Y,item1_shape,item2_shape,item3_shape,item4_shape,item5_shape,item6_shape,item1_line,item2_line,item3_line,item4_line,item5_line,item6_line
1c,20,100161,1,1,1,20,M,NA,variable,homogeneous,6,present,1.51376509666443,1,vertical,vertical,1,0.776465106010437,green,2,6,1050.31493177915,648.656293821019,632.704947607421,792.450942956807,883.019879386575,841.107236777826,1050.31493177915,648.656293821019,967.295052392579,407.549057043193,716.980120613425,358.892763222174,549.685068220846,551.343706178981,632.704947607421,792.450942956807,0,4,0,0,0,0,vertical,vertical,horizontal,vertical,horizontal,horizontal
1c,20,100161,1,2,2,20,M,NA,variable,homogeneous,3,present,NaN,0,horizontal,none,0,0.611764340400696,green,2,3,1000.94274216971,443.006323791957,563.568117085469,504.475318678942,835.489140744817,852.518357529101,1000.94274216971,443.006323791957,563.568117085469,504.475318678942,0,0,0,0,0,0,0,4,0,NaN,NaN,NaN,horizontal,horizontal,horizontal,none,none,none
1c,20,100161,1,3,3,20,M,NA,variable,homogeneous,6,absent,1.80122494697571,1,horizontal,horizontal,1,0.635293021202087,red,1,NaN,895.524681321058,836.431882914531,NaN,NaN,895.524681321058,836.431882914531,1052.5183575291,635.489140744817,956.993676208043,399.057257830286,704.475318678942,363.568117085469,547.481642470899,564.510859255183,643.006323791957,800.942742169714,4,0,0,0,0,0,horizontal,vertical,horizontal,horizontal,vertical,horizontal
1c,20,100161,1,4,4,20,M,NA,variable,homogeneous,5,present,0.991467952728271,1,vertical,vertical,1,0.717643404006958,red,1,3,696.282156015671,832.954091698863,1020.83647796503,472.5,696.282156015671,832.954091698863,989.501930496736,770.628304621509,1020.83647796503,472.5,746.982518841471,350.57236181288,546.39691668109,573.345241866748,0,0,4,0,0,0,0,NaN,vertical,horizontal,horizontal,horizontal,vertical,none
1c,20,100161,1,5,5,20,M,NA,variable,homogeneous,3,present,0.810923099517822,1,horizontal,horizontal,1,0.96469455242157,green,1,3,865.998856501143,846.311085703712,553.688914296288,534.001143498857,865.998856501143,846.311085703712,980.31222920257,419.68777079743,553.688914296288,534.001143498857,0,0,0,0,0,0,4,0,0,NaN,NaN,NaN,horizontal,vertical,vertical,none,none,none
1c,20,100161,1,6,6,20,M,NA,variable,homogeneous,4,absent,1.13973307609558,1,vertical,vertical,1,1.02351625442505,red,4,NaN,556.142287229426,674.554784704298,NaN,NaN,874.554784704298,843.857712770574,1043.85771277057,525.445215295702,725.445215295702,356.142287229426,556.142287229426,674.554784704298,0,0,0,0,0,0,0,4,NaN,NaN,vertical,vertical,horizontal,vertical,none,none
1c,20,100161,1,7,7,20,M,NA,variable,homogeneous,6,absent,0.88392186164856,1,horizontal,horizontal,1,0.647057361602783,green,1,NaN,708.616172865948,838.063008756786,NaN,NaN,708.616172865948,838.063008756786,960.476699717708,798.172220171528,1051.86052685176,560.109211414741,891.383827134052,361.936991243214,639.523300282292,401.827779828472,548.13947314824,639.890788585259,4,0,0,0,0,0,horizontal,horizontal,horizontal,vertical,vertical,horizontal
1c,20,100161,1,8,8,20,M,NA,variable,homogeneous,4,present,0.987377882003784,1,horizontal,horizontal,1,0.882344169616699,green,4,3,593.700666434388,450.114760665419,949.885239334581,393.700666434388,650.114760665419,806.299333565612,1006.29933356561,749.885239334581,949.885239334581,393.700666434388,593.700666434388,450.114760665419,0,0,0,0,0,0,0,4,NaN,NaN,vertical,vertical,vertical,horizontal,none,none
1c,20,100161,1,9,9,20,M,NA,variable,homogeneous,6,absent,0.712608814239502,1,vertical,vertical,1,0.658821702003479,red,2,NaN,1038.06300875679,691.383827134052,NaN,NaN,839.890788585259,851.86052685176,1038.06300875679,691.383827134052,998.172220171528,439.523300282291,760.109211414741,348.13947314824,561.936991243214,508.616172865948,601.827779828472,760.476699717708,0,4,0,0,0,0,vertical,vertical,vertical,horizontal,vertical,vertical
1c,20,100161,1,10,10,20,M,NA,variable,homogeneous,3,absent,0.839725971221924,1,vertical,vertical,1,0.635293021202087,green,3,NaN,545.03883773512,595.549636358493,NaN,NaN,923.626453162816,823.028025320546,931.334709102064,381.422338320961,545.03883773512,595.549636358493,0,0,0,0,0,0,0,0,4,NaN,NaN,NaN,vertical,vertical,vertical,none,none,none
1c,20,100161,1,11,11,20,M,NA,variable,homogeneous,5,absent,0.701859951019287,1,horizontal,horizontal,1,1.05880927562714,red,4,NaN,657.405809614959,388.595418998464,NaN,NaN,791.100628340862,854.844660889869,1039.62161830041,687.215136548046,956.993676208043,399.057257830286,657.405809614959,388.595418998464,554.878267535729,670.287525733335,0,0,0,0,0,4,0,NaN,vertical,vertical,vertical,horizontal,horizontal,none
1c,20,100161,1,12,12,20,M,NA,variable,homogeneous,6,absent,0.884975910186768,1,vertical,vertical,1,0.647057361602783,red,6,NaN,545,600,NaN,NaN,672.5,820.836477965032,927.5,820.836477965032,1055,600,927.5,379.163522034968,672.5,379.163522034968,545,600,0,0,0,0,0,4,vertical,vertical,vertical,horizontal,vertical,vertical
1c,20,100161,1,13,13,20,M,NA,variable,homogeneous,6,absent,0.662240982055664,1,horizontal,horizontal,1,0.976458892822266,green,1,NaN,865.998856501143,846.311085703712,NaN,NaN,865.998856501143,846.311085703712,1046.31108570371,665.998856501143,980.31222920257,419.68777079743,734.001143498857,353.688914296288,553.688914296288,534.001143498857,619.68777079743,780.31222920257,4,0,0,0,0,0,horizontal,horizontal,horizontal,vertical,horizontal,horizontal
1c,20,100161,1,14,14,20,M,NA,variable,homogeneous,3,present,0.74240517616272,1,horizontal,horizontal,1,0.929401531219482,red,3,2,546.900731331463,568.923317431687,953.462830903772,396.34794493794,899.636437764765,834.728737630372,953.462830903772,396.34794493794,546.900731331463,568.923317431687,0,0,0,0,0,0,0,0,4,NaN,NaN,NaN,vertical,horizontal,horizontal,none,none,none
1c,20,100161,1,15,15,20,M,NA,variable,homogeneous,4,absent,0.895347118377686,1,vertical,vertical,1,0.894108510017395,green,2,NaN,1049.42763818712,653.017481158529,NaN,NaN,746.982518841471,849.42763818712,1049.42763818712,653.017481158529,853.017481158529,350.57236181288,550.57236181288,546.982518841471,0,0,0,0,0,4,0,0,NaN,NaN,vertical,vertical,horizontal,horizontal,none,none
1c,20,100161,1,16,16,20,M,NA,variable,homogeneous,4,absent,0.678685188293457,0,horizontal,vertical,1,1.07057361602783,red,4,NaN,567.045908301137,496.282156015671,NaN,NaN,696.282156015671,832.954091698863,1032.95409169886,703.717843984329,903.717843984329,367.045908301137,567.045908301137,496.282156015671,0,0,0,0,0,0,0,4,NaN,NaN,vertical,horizontal,horizontal,horizontal,none,none
1c,20,100161,1,17,17,20,M,NA,variable,homogeneous,5,absent,1.34895205497742,1,vertical,vertical,1,1.02351625442505,green,3,NaN,808.899371659138,345.155339110131,NaN,NaN,942.594190385041,811.404581001536,1045.12173246427,529.712474266665,808.899371659138,345.155339110131,560.378381699593,512.784863451954,643.006323791957,800.942742169714,0,0,0,0,4,0,0,NaN,vertical,horizontal,vertical,horizontal,horizontal,none
1c,20,100161,1,18,18,20,M,NA,variable,homogeneous,5,absent,0.782685041427612,1,vertical,vertical,1,0.917637190818787,green,4,NaN,563.568117085469,504.475318678942,NaN,NaN,935.129412379467,816.252264519889,1047.42541020038,538.309916622085,817.787900804752,345.621167183745,563.568117085469,504.475318678942,636.089159529932,795.341332995339,0,0,0,0,0,4,0,NaN,vertical,horizontal,vertical,vertical,horizontal,none
1c,20,100161,1,19,19,20,M,NA,variable,homogeneous,6,present,1.01731991767883,1,horizontal,horizontal,1,0.952930212020874,green,3,2,992.450942956807,432.704947607421,1041.10723677783,683.019879386575,848.656293821019,850.314931779154,1041.10723677783,683.019879386575,992.450942956807,432.704947607421,751.343706178981,349.685068220846,558.892763222174,516.980120613425,607.549057043193,767.295052392579,0,0,4,0,0,0,horizontal,horizontal,horizontal,vertical,vertical,horizontal
1c,20,100161,1,20,20,20,M,NA,variable,homogeneous,3,present,1.0550708770752,1,horizontal,horizontal,1,0.658821702003479,red,3,1,545.621167183745,582.212099195248,911.784642431215,829.192481806288,911.784642431215,829.192481806288,942.594190385041,388.595418998464,545.621167183745,582.212099195248,0,0,0,0,0,0,0,0,4,NaN,NaN,NaN,vertical,horizontal,horizontal,none,none,none
1c,20,100161,1,21,21,20,M,NA,variable,homogeneous,4,present,1.08606004714966,1,vertical,vertical,1,0.694114723205566,green,1,2,692.232343256122,831.108485694346,1031.10848569435,707.767656743878,692.232343256122,831.108485694346,1031.10848569435,707.767656743878,907.767656743878,368.891514305654,568.891514305654,492.232343256122,0,0,0,0,4,0,0,0,NaN,NaN,vertical,horizontal,vertical,vertical,none,none
1c,20,100161,1,22,22,20,M,NA,variable,homogeneous,5,present,0.689946889877319,1,horizontal,horizontal,1,1.09410229682922,red,2,4,1000.94274216971,756.993676208043,729.712474266665,354.878267535729,712.784863451954,839.621618300407,1000.94274216971,756.993676208043,1011.40458100154,457.40580961496,729.712474266665,354.878267535729,545.155339110131,591.100628340862,0,0,0,4,0,0,0,NaN,horizontal,horizontal,vertical,vertical,horizontal,none
1c,20,100161,1,23,23,20,M,NA,variable,homogeneous,6,present,0.678790092468262,1,horizontal,horizontal,1,0.74117208480835,green,2,4,1000.94274216971,756.993676208043,835.489140744817,347.4816424709,764.510859255183,852.518357529101,1000.94274216971,756.993676208043,1036.43188291453,504.475318678942,835.489140744817,347.4816424709,599.057257830286,443.006323791957,563.568117085469,695.524681321058,0,4,0,0,0,0,vertical,horizontal,horizontal,horizontal,horizontal,vertical
1c,20,100161,1,24,24,20,M,NA,variable,homogeneous,3,absent,0.873204946517944,1,horizontal,horizontal,1,0.635293021202087,red,1,NaN,604.658667004661,763.910840470068,NaN,NaN,604.658667004661,763.910840470068,1039.62161830041,687.215136548046,755.719714694933,348.874022981887,0,0,0,0,0,0,4,0,0,NaN,NaN,NaN,horizontal,vertical,horizontal,none,none,none
1c,20,100161,1,25,25,20,M,NA,variable,homogeneous,4,present,0.615370988845825,1,horizontal,horizontal,1,0.82352246761322,red,1,3,791.100628340862,854.844660889869,808.899371659138,345.155339110131,791.100628340862,854.844660889869,1054.84466088987,608.899371659138,808.899371659138,345.155339110131,545.155339110131,591.100628340862,0,0,0,0,4,0,0,0,NaN,NaN,horizontal,horizontal,vertical,horizontal,none,none
1c,20,100161,1,26,26,20,M,NA,variable,homogeneous,6,present,0.719784021377563,1,vertical,vertical,1,0.999987573623657,red,2,5,986.495193912888,773.909581815937,613.504806087112,426.090418184063,742.637481142314,848.464366520235,986.495193912888,773.909581815937,1043.85771277057,525.445215295702,857.362518857686,351.535633479765,613.504806087112,426.090418184063,556.142287229426,674.554784704298,0,4,0,0,0,0,horizontal,vertical,vertical,vertical,vertical,horizontal
1c,20,100161,1,27,27,20,M,NA,variable,homogeneous,4,present,0.605316162109375,1,vertical,vertical,1,0.952930212020874,green,1,2,622.862115532956,783.431649086356,983.431649086356,777.137884467044,622.862115532956,783.431649086356,983.431649086356,777.137884467044,977.137884467044,416.568350913644,616.568350913644,422.862115532956,0,0,0,0,4,0,0,0,NaN,NaN,vertical,horizontal,horizontal,vertical,none,none
1c,20,100161,1,28,28,20,M,NA,variable,homogeneous,4,present,0.593668937683105,1,vertical,vertical,1,0.6,red,4,1,604.658667004661,763.910840470068,963.910840470068,795.341332995339,963.910840470068,795.341332995339,995.341332995339,436.089159529932,636.089159529932,404.658667004661,604.658667004661,763.910840470068,0,0,0,0,0,0,0,4,NaN,NaN,vertical,vertical,vertical,vertical,none,none
1c,20,100161,1,29,29,20,M,NA,variable,homogeneous,6,present,0.618139982223511,1,vertical,vertical,1,0.82352246761322,red,3,4,1011.40458100154,457.40580961496,782.212099195248,345.621167183745,817.787900804752,854.378832816255,1029.19248180629,711.784642431215,1011.40458100154,457.40580961496,782.212099195248,345.621167183745,570.807518193712,488.215357568785,588.595418998464,742.594190385041,0,0,4,0,0,0,vertical,vertical,vertical,horizontal,horizontal,horizontal
1c,20,100161,1,30,30,20,M,NA,variable,homogeneous,3,absent,0.739952087402344,1,vertical,vertical,1,0.870579829216003,red,1,NaN,721.200666434388,842.519411655264,NaN,NaN,721.200666434388,842.519411655264,1049.42763818712,546.982518841471,629.371695378491,410.498069503264,0,0,0,0,0,0,4,0,0,NaN,NaN,NaN,vertical,vertical,horizontal,none,none,none
1c,20,100161,1,31,31,20,M,NA,variable,homogeneous,3,absent,0.716445207595825,1,horizontal,horizontal,1,0.870579829216003,green,1,NaN,998.172220171528,760.476699717708,NaN,NaN,998.172220171528,760.476699717708,839.890788585259,348.13947314824,561.936991243214,691.383827134052,0,0,0,0,0,0,4,0,0,NaN,NaN,NaN,horizontal,vertical,vertical,none,none,none
1c,20,100161,1,32,32,20,M,NA,variable,homogeneous,6,present,0.792769908905029,1,vertical,vertical,1,0.882344169616699,green,5,3,596.34794493794,446.537169096228,1034.72873763037,500.363562235235,768.923317431687,853.099268668537,1003.65205506206,753.462830903772,1034.72873763037,500.363562235235,831.076682568313,346.900731331463,596.34794493794,446.537169096228,565.271262369628,699.636437764765,0,0,0,0,4,0,horizontal,horizontal,horizontal,horizontal,vertical,vertical
1c,20,100161,1,33,33,20,M,NA,variable,homogeneous,3,present,0.777655839920044,1,vertical,vertical,1,1.04704493522644,red,1,3,992.450942956807,767.295052392579,558.892763222174,683.019879386575,992.450942956807,767.295052392579,848.656293821019,349.685068220846,558.892763222174,683.019879386575,0,0,0,0,0,0,4,0,0,NaN,NaN,NaN,vertical,vertical,vertical,none,none,none
1c,20,100161,1,34,34,20,M,NA,variable,homogeneous,4,absent,0.743613004684448,1,horizontal,horizontal,1,0.694114723205566,green,4,NaN,546.900731331463,568.923317431687,NaN,NaN,768.923317431687,853.099268668537,1053.09926866854,631.076682568313,831.076682568313,346.900731331463,546.900731331463,568.923317431687,0,0,0,0,0,0,0,4,NaN,NaN,vertical,vertical,horizontal,horizontal,none,none
1c,20,100161,1,35,35,20,M,NA,variable,homogeneous,3,present,0.724217891693115,1,vertical,vertical,1,1.08233795642853,red,1,2,817.787900804752,854.378832816255,1011.40458100154,457.40580961496,817.787900804752,854.378832816255,1011.40458100154,457.40580961496,570.807518193712,488.215357568785,0,0,0,0,0,0,4,0,0,NaN,NaN,NaN,vertical,horizontal,vertical,none,none,none
1c,20,100161,1,36,36,20,M,NA,variable,homogeneous,4,present,0.722589015960693,1,horizontal,horizontal,1,0.999987573623657,red,3,2,661.117046071168,386.139005173917,1013.86099482608,461.117046071168,938.882953928832,813.860994826083,1013.86099482608,461.117046071168,661.117046071168,386.139005173917,586.139005173917,738.882953928832,0,0,0,0,0,0,4,0,NaN,NaN,vertical,horizontal,horizontal,vertical,none,none
1c,20,100161,1,37,37,20,M,NA,variable,homogeneous,5,present,0.721759080886841,1,horizontal,horizontal,1,0.82352246761322,green,3,4,1023.02802532055,476.373546837184,751.343706178981,349.685068220846,692.232343256122,831.108485694346,986.495193912888,773.909581815937,1023.02802532055,476.373546837184,751.343706178981,349.685068220846,546.900731331463,568.923317431687,0,0,0,0,4,0,0,NaN,vertical,vertical,horizontal,horizontal,horizontal,none
1c,20,100161,1,38,38,20,M,NA,variable,homogeneous,4,absent,0.822561979293823,1,vertical,vertical,1,0.905872850418091,green,1,NaN,970.628304621509,789.501930496736,NaN,NaN,970.628304621509,789.501930496736,989.501930496736,429.371695378491,629.371695378491,410.498069503264,610.498069503264,770.628304621509,0,0,0,0,4,0,0,0,NaN,NaN,vertical,vertical,horizontal,horizontal,none,none
1c,20,100161,1,39,39,20,M,NA,variable,homogeneous,6,absent,0.643857955932617,1,horizontal,horizontal,1,0.82352246761322,red,6,NaN,545.03883773512,604.450363641507,NaN,NaN,676.373546837184,823.028025320546,931.334709102064,818.577661679039,1054.96116226488,595.549636358493,923.626453162816,376.971974679454,668.665290897936,381.422338320961,545.03883773512,604.450363641507,0,0,0,0,0,4,vertical,vertical,vertical,vertical,vertical,horizontal
1c,20,100161,1,40,40,20,M,NA,variable,homogeneous,4,present,0.727960824966431,1,horizontal,horizontal,1,0.764700765609741,green,1,4,696.282156015671,832.954091698863,567.045908301137,496.282156015671,696.282156015671,832.954091698863,1032.95409169886,703.717843984329,903.717843984329,367.045908301137,567.045908301137,496.282156015671,0,0,0,0,4,0,0,0,NaN,NaN,horizontal,vertical,horizontal,vertical,none,none
1c,20,100161,1,41,41,20,M,NA,variable,homogeneous,6,present,0.736983060836792,1,horizontal,horizontal,1,0.705879063606262,red,2,1,1051.12597701811,644.280285305067,887.215136548046,839.621618300407,887.215136548046,839.621618300407,1051.12597701811,644.280285305067,963.910840470068,404.658667004661,712.784863451954,360.378381699593,548.874022981887,555.719714694933,636.089159529932,795.341332995339,0,4,0,0,0,0,vertical,horizontal,vertical,horizontal,vertical,horizontal
1c,20,100161,1,42,42,20,M,NA,variable,homogeneous,3,present,0.674024820327759,1,vertical,vertical,1,0.905872850418091,green,2,3,1034.72873763037,699.636437764765,768.923317431687,346.900731331463,596.34794493794,753.462830903772,1034.72873763037,699.636437764765,768.923317431687,346.900731331463,0,0,0,0,0,0,0,4,0,NaN,NaN,NaN,horizontal,vertical,horizontal,none,none,none
1c,20,100161,1,43,43,20,M,NA,variable,homogeneous,4,present,0.608680009841919,1,vertical,vertical,1,0.847051148414612,red,2,3,1038.06300875679,691.383827134052,891.383827134052,361.936991243214,708.616172865948,838.063008756786,1038.06300875679,691.383827134052,891.383827134052,361.936991243214,561.936991243214,508.616172865948,0,0,0,0,0,4,0,0,NaN,NaN,horizontal,vertical,horizontal,horizontal,none,none
1c,20,100161,1,44,44,20,M,NA,variable,homogeneous,5,absent,0.615716934204102,1,horizontal,horizontal,1,0.74117208480835,green,3,NaN,956.993676208043,399.057257830286,NaN,NaN,791.100628340862,854.844660889869,1039.62161830041,687.215136548046,956.993676208043,399.057257830286,657.405809614959,388.595418998464,554.878267535729,670.287525733335,0,0,0,0,4,0,0,NaN,horizontal,horizontal,horizontal,vertical,vertical,none
1c,20,100161,1,45,45,20,M,NA,variable,homogeneous,5,absent,0.617691040039062,1,horizontal,horizontal,1,1.07057361602783,red,1,NaN,808.899371659138,854.844660889869,NaN,NaN,808.899371659138,854.844660889869,1045.12173246427,670.287525733335,942.594190385041,388.595418998464,643.006323791957,399.057257830286,560.378381699593,687.215136548046,0,0,4,0,0,0,0,NaN,horizontal,horizontal,vertical,vertical,vertical,none
1c,20,100161,1,46,46,20,M,NA,variable,homogeneous,6,absent,0.666599035263062,1,vertical,vertical,1,0.82352246761322,green,6,NaN,604.658667004661,763.910840470068,NaN,NaN,844.280285305067,851.125977018113,1039.62161830041,687.215136548046,995.341332995339,436.089159529932,755.719714694933,348.874022981887,560.378381699593,512.784863451954,604.658667004661,763.910840470068,0,0,0,0,0,4,horizontal,vertical,vertical,vertical,horizontal,vertical
1c,20,100161,1,47,47,20,M,NA,variable,homogeneous,3,absent,1.17441916465759,1,vertical,vertical,1,0.917637190818787,green,2,NaN,1054.84466088987,608.899371659138,NaN,NaN,664.870587620533,816.252264519889,1054.84466088987,608.899371659138,680.284751489598,374.848363820974,0,0,0,0,0,0,0,4,0,NaN,NaN,NaN,vertical,vertical,horizontal,none,none,none
1c,20,100161,1,48,48,20,M,NA,variable,homogeneous,6,present,0.955036878585815,1,horizontal,horizontal,1,0.658821702003479,red,6,3,560.378381699593,687.215136548046,1039.62161830041,512.784863451954,755.719714694933,851.125977018113,995.341332995339,763.910840470068,1039.62161830041,512.784863451954,844.280285305067,348.874022981887,604.658667004661,436.089159529932,560.378381699593,687.215136548046,0,0,0,0,0,4,vertical,horizontal,horizontal,horizontal,horizontal,horizontal
1c,20,100161,1,49,49,20,M,NA,variable,homogeneous,5,present,0.641767024993896,1,horizontal,horizontal,1,0.96469455242157,red,3,2,1025.15163617903,480.284751489598,983.431649086356,777.137884467044,688.215357568785,829.192481806288,983.431649086356,777.137884467044,1025.15163617903,480.284751489598,755.719714694933,348.874022981887,547.481642470899,564.510859255183,0,0,0,0,4,0,0,NaN,vertical,vertical,horizontal,horizontal,horizontal,none
1c,20,100161,1,50,50,20,M,NA,variable,homogeneous,3,absent,0.563637018203735,1,horizontal,horizontal,1,0.647057361602783,red,2,NaN,1054.96116226488,595.549636358493,NaN,NaN,676.373546837184,823.028025320546,1054.96116226488,595.549636358493,668.665290897936,381.422338320961,0,0,0,0,0,0,0,4,0,NaN,NaN,NaN,vertical,horizontal,horizontal,none,none,none
1c,20,100161,1,51,51,20,M,NA,variable,homogeneous,5,present,0.732120990753174,1,vertical,vertical,1,0.847051148414612,green,3,5,1011.40458100154,457.40580961496,545.155339110131,591.100628340862,712.784863451954,839.621618300407,1000.94274216971,756.993676208043,1011.40458100154,457.40580961496,729.712474266665,354.878267535729,545.155339110131,591.100628340862,0,0,0,0,4,0,0,NaN,vertical,horizontal,vertical,vertical,horizontal,none
1c,20,100161,1,52,52,20,M,NA,variable,homogeneous,4,absent,0.581708908081055,1,horizontal,horizontal,1,0.929401531219482,green,4,NaN,596.34794493794,446.537169096228,NaN,NaN,646.537169096228,803.65205506206,1003.65205506206,753.462830903772,953.462830903772,396.34794493794,596.34794493794,446.537169096228,0,0,0,0,0,0,0,4,NaN,NaN,horizontal,horizontal,horizontal,horizontal,none,none
1c,20,100161,1,53,53,20,M,NA,variable,homogeneous,5,present,0.604320049285889,1,horizontal,horizontal,1,0.74117208480835,green,3,1,938.882953928832,386.139005173917,813.345668841951,854.650531362416,813.345668841951,854.650531362416,1046.31108570371,665.998856501143,938.882953928832,386.139005173917,639.523300282292,401.827779828472,561.936991243214,691.383827134052,0,0,0,0,4,0,0,NaN,vertical,vertical,horizontal,vertical,horizontal,none
1c,20,100161,1,54,54,20,M,NA,variable,homogeneous,5,absent,0.796494007110596,1,vertical,vertical,1,1.01175191402435,red,5,NaN,545.349468637584,586.654331158049,NaN,NaN,708.616172865948,838.063008756786,998.172220171528,760.476699717708,1013.86099482608,461.117046071168,734.001143498857,353.688914296288,545.349468637584,586.654331158049,0,0,0,0,0,0,4,NaN,vertical,vertical,horizontal,vertical,vertical,none
1c,20,100161,1,55,55,20,M,NA,variable,homogeneous,6,absent,1.36797714233398,1,vertical,vertical,1,0.764700765609741,green,2,NaN,1041.10723677783,683.019879386575,NaN,NaN,848.656293821019,850.314931779154,1041.10723677783,683.019879386575,992.450942956807,432.704947607421,751.343706178981,349.685068220846,558.892763222174,516.980120613425,607.549057043193,767.295052392579,0,4,0,0,0,0,vertical,vertical,horizontal,horizontal,vertical,horizontal
1c,20,100161,1,56,56,20,M,NA,variable,homogeneous,3,present,1.12764596939087,1,vertical,vertical,1,0.999987573623657,green,3,1,546.900731331463,631.076682568313,953.462830903772,803.65205506206,953.462830903772,803.65205506206,899.636437764765,365.271262369628,546.900731331463,631.076682568313,0,0,0,0,0,0,0,0,4,NaN,NaN,NaN,horizontal,horizontal,vertical,none,none,none
1c,20,100161,1,57,57,20,M,NA,variable,homogeneous,5,present,1.04532790184021,1,vertical,vertical,1,0.952930212020874,red,2,1,1054.0296480134,622.224714400653,857.362518857686,848.464366520235,857.362518857686,848.464366520235,1054.0296480134,622.224714400653,899.636437764765,365.271262369628,607.549057043193,432.704947607421,581.422338320961,731.334709102064,0,0,0,4,0,0,0,NaN,vertical,vertical,vertical,vertical,vertical,none
1c,20,100161,1,58,58,20,M,NA,variable,homogeneous,4,absent,0.667961120605469,1,vertical,vertical,1,0.882344169616699,red,4,NaN,563.568117085469,695.524681321058,NaN,NaN,895.524681321058,836.431882914531,1036.43188291453,504.475318678942,704.475318678942,363.568117085469,563.568117085469,695.524681321058,0,0,0,0,0,0,0,4,NaN,NaN,horizontal,vertical,vertical,vertical,none,none
1c,20,100161,1,59,59,20,M,NA,variable,homogeneous,5,absent,0.883922100067139,1,vertical,vertical,1,0.729407744407654,red,4,NaN,760.109211414741,348.13947314824,NaN,NaN,684.232422566416,827.206663668034,980.31222920257,780.31222920257,1027.20666366803,484.232422566416,760.109211414741,348.13947314824,548.13947314824,560.109211414741,0,0,0,0,0,4,0,NaN,vertical,vertical,horizontal,vertical,horizontal,none
1c,20,100161,1,60,60,20,M,NA,variable,homogeneous,4,absent,0.608557939529419,1,horizontal,horizontal,1,0.941165871620178,red,2,NaN,1048.46436652023,657.362518857686,NaN,NaN,742.637481142314,848.464366520235,1048.46436652023,657.362518857686,857.362518857686,351.535633479765,551.535633479765,542.637481142314,0,0,0,0,0,4,0,0,NaN,NaN,vertical,horizontal,vertical,vertical,none,none
1c,20,100161,1,61,61,20,M,NA,variable,homogeneous,5,absent,0.727759122848511,1,horizontal,horizontal,1,0.74117208480835,green,1,NaN,692.232343256122,831.108485694346,NaN,NaN,692.232343256122,831.108485694346,986.495193912888,773.909581815937,1023.02802532055,476.373546837184,751.343706178981,349.685068220846,546.900731331463,568.923317431687,0,0,4,0,0,0,0,NaN,horizontal,horizontal,horizontal,vertical,vertical,none
1c,20,100161,1,62,62,20,M,NA,variable,homogeneous,3,absent,0.624654054641724,1,horizontal,horizontal,1,0.717643404006958,green,1,NaN,1016.25226451989,735.129412379467,NaN,NaN,1016.25226451989,735.129412379467,808.899371659138,345.155339110131,574.848363820974,719.715248510402,0,0,0,0,0,0,4,0,0,NaN,NaN,NaN,horizontal,horizontal,vertical,none,none,none
1c,20,100161,1,63,63,20,M,NA,variable,homogeneous,5,present,0.678440093994141,1,vertical,vertical,1,0.647057361602783,green,5,2,568.891514305654,707.767656743878,1050.31493177915,648.656293821019,831.076682568313,853.099268668537,1050.31493177915,648.656293821019,923.626453162816,376.971974679454,626.090418184063,413.504806087112,568.891514305654,707.767656743878,0,0,0,0,0,0,4,NaN,vertical,horizontal,horizontal,vertical,vertical,none
1c,20,100161,1,64,64,20,M,NA,variable,homogeneous,3,absent,0.84492301940918,1,vertical,vertical,1,0.847051148414612,red,2,NaN,956.993676208043,399.057257830286,NaN,NaN,895.524681321058,836.431882914531,956.993676208043,399.057257830286,547.481642470899,564.510859255183,0,0,0,0,0,0,0,4,0,NaN,NaN,NaN,horizontal,vertical,horizontal,none,none,none
1c,20,100161,2,1,65,20,M,NA,variable,homogeneous,4,present,1.34212303161621,1,vertical,vertical,1,1.08233795642853,red,3,2,865.998856501143,353.688914296288,1046.31108570371,665.998856501143,734.001143498857,846.311085703712,1046.31108570371,665.998856501143,865.998856501143,353.688914296288,553.688914296288,534.001143498857,0,0,0,0,0,0,4,0,NaN,NaN,horizontal,horizontal,vertical,vertical,none,none
1c,20,100161,2,2,66,20,M,NA,variable,homogeneous,5,present,0.781670808792114,1,horizontal,horizontal,1,0.82352246761322,green,5,3,596.34794493794,753.462830903772,874.554784704298,356.142287229426,883.019879386575,841.107236777826,1054.96116226488,595.549636358493,874.554784704298,356.142287229426,591.116228706307,453.738008730483,596.34794493794,753.462830903772,0,0,0,0,0,0,4,NaN,horizontal,vertical,horizontal,vertical,horizontal,none
1c,20,100161,2,3,67,20,M,NA,variable,homogeneous,3,absent,0.607605934143066,1,horizontal,horizontal,1,0.705879063606262,red,2,NaN,1054.84466088987,608.899371659138,NaN,NaN,664.870587620533,816.252264519889,1054.84466088987,608.899371659138,680.284751489598,374.848363820974,0,0,0,0,0,0,0,4,0,NaN,NaN,NaN,horizontal,horizontal,horizontal,none,none,none
1c,20,100161,2,4,68,20,M,NA,variable,homogeneous,5,present,0.617300987243652,1,vertical,vertical,1,0.682350382804871,green,5,4,568.891514305654,707.767656743878,626.090418184063,413.504806087112,831.076682568313,853.099268668537,1050.31493177915,648.656293821019,923.626453162816,376.971974679454,626.090418184063,413.504806087112,568.891514305654,707.767656743878,0,0,0,0,0,0,4,NaN,vertical,horizontal,vertical,horizontal,vertical,none
1c,20,100161,2,5,69,20,M,NA,variable,homogeneous,6,present,0.755429983139038,1,vertical,vertical,1,0.870579829216003,red,3,1,1051.12597701811,555.719714694933,712.784863451954,839.621618300407,712.784863451954,839.621618300407,963.910840470068,795.341332995339,1051.12597701811,555.719714694933,887.215136548046,360.378381699593,636.089159529932,404.658667004661,548.874022981887,644.280285305067,0,0,4,0,0,0,vertical,horizontal,vertical,horizontal,horizontal,horizontal
1c,20,100161,2,6,70,20,M,NA,variable,homogeneous,3,present,0.744998931884766,1,horizontal,horizontal,1,0.717643404006958,red,3,1,629.371695378491,410.498069503264,721.200666434388,842.519411655264,721.200666434388,842.519411655264,1049.42763818712,546.982518841471,629.371695378491,410.498069503264,0,0,0,0,0,0,0,0,4,NaN,NaN,NaN,horizontal,vertical,horizontal,none,none,none
1c,20,100161,2,7,71,20,M,NA,variable,homogeneous,5,absent,0.58083701133728,1,horizontal,horizontal,1,0.835286808013916,green,3,NaN,1038.06300875679,508.616172865948,NaN,NaN,661.117046071168,813.860994826083,960.476699717708,798.172220171528,1038.06300875679,508.616172865948,786.654331158049,345.349468637584,553.688914296288,534.001143498857,0,0,0,0,4,0,0,NaN,vertical,horizontal,horizontal,vertical,horizontal,none
1c,20,100161,2,8,72,20,M,NA,variable,homogeneous,6,absent,0.560153961181641,1,vertical,vertical,1,0.976458892822266,red,5,NaN,581.422338320961,468.665290897936,NaN,NaN,795.549636358493,854.96116226488,1018.57766167904,731.334709102064,1023.02802532055,476.373546837184,804.450363641507,345.03883773512,581.422338320961,468.665290897936,576.971974679454,723.626453162816,0,0,0,0,4,0,horizontal,vertical,vertical,horizontal,vertical,horizontal
1c,20,100161,2,9,73,20,M,NA,variable,homogeneous,6,present,1.95573711395264,1,horizontal,horizontal,1,1.02351625442505,red,2,1,1053.60308331891,626.654758133252,903.717843984329,832.954091698863,903.717843984329,832.954091698863,1053.60308331891,626.654758133252,949.885239334581,393.700666434388,696.282156015671,367.045908301137,546.39691668109,573.345241866748,650.114760665419,806.299333565612,0,4,0,0,0,0,vertical,horizontal,horizontal,horizontal,vertical,vertical
1c,20,100161,2,10,74,20,M,NA,variable,homogeneous,4,present,0.951767921447754,1,horizontal,horizontal,1,1.02351625442505,green,4,2,604.658667004661,763.910840470068,995.341332995339,436.089159529932,963.910840470068,795.341332995339,995.341332995339,436.089159529932,636.089159529932,404.658667004661,604.658667004661,763.910840470068,0,0,0,0,0,0,0,4,NaN,NaN,horizontal,vertical,vertical,horizontal,none,none
1c,20,100161,2,11,75,20,M,NA,variable,homogeneous,4,present,0.831003904342651,1,horizontal,horizontal,1,1.01175191402435,red,4,3,545.155339110131,608.899371659138,791.100628340862,345.155339110131,808.899371659138,854.844660889869,1054.84466088987,591.100628340862,791.100628340862,345.155339110131,545.155339110131,608.899371659138,0,0,0,0,0,0,0,4,NaN,NaN,horizontal,vertical,vertical,horizontal,none,none
1c,20,100161,2,12,76,20,M,NA,variable,homogeneous,4,present,0.65021800994873,1,vertical,vertical,1,0.705879063606262,green,4,2,604.658667004661,763.910840470068,995.341332995339,436.089159529932,963.910840470068,795.341332995339,995.341332995339,436.089159529932,636.089159529932,404.658667004661,604.658667004661,763.910840470068,0,0,0,0,0,0,0,4,NaN,NaN,horizontal,horizontal,horizontal,vertical,none,none
1c,20,100161,2,13,77,20,M,NA,variable,homogeneous,6,present,0.916008949279785,1,horizontal,horizontal,1,1.03528059482574,green,3,1,1052.5183575291,564.510859255183,704.475318678942,836.431882914531,704.475318678942,836.431882914531,956.993676208043,800.942742169714,1052.5183575291,564.510859255183,895.524681321058,363.568117085469,643.006323791957,399.057257830286,547.481642470899,635.489140744817,0,0,4,0,0,0,horizontal,vertical,horizontal,vertical,vertical,horizontal
1c,20,100161,2,14,78,20,M,NA,variable,homogeneous,6,absent,0.689350128173828,1,vertical,vertical,1,0.941165871620178,green,1,NaN,919.715248510402,825.151636179026,NaN,NaN,919.715248510402,825.151636179026,1054.84466088987,608.899371659138,935.129412379467,383.747735480111,680.284751489598,374.848363820974,545.155339110131,591.100628340862,664.870587620533,816.252264519889,4,0,0,0,0,0,vertical,vertical,vertical,horizontal,horizontal,horizontal
1c,20,100161,2,15,79,20,M,NA,variable,homogeneous,5,present,1.12135481834412,1,horizontal,horizontal,1,0.905872850418091,green,3,2,878.799333565612,357.480588344736,1055,600,878.799333565612,842.519411655264,1055,600,878.799333565612,357.480588344736,593.700666434388,450.114760665419,593.700666434388,749.885239334581,0,0,0,0,4,0,0,NaN,horizontal,horizontal,horizontal,vertical,vertical,none
1c,20,100161,2,16,80,20,M,NA,variable,homogeneous,6,present,0.649861097335815,1,vertical,vertical,1,0.894108510017395,red,2,4,1039.62161830041,687.215136548046,755.719714694933,348.874022981887,844.280285305067,851.125977018113,1039.62161830041,687.215136548046,995.341332995339,436.089159529932,755.719714694933,348.874022981887,560.378381699593,512.784863451954,604.658667004661,763.910840470068,0,4,0,0,0,0,vertical,vertical,vertical,vertical,vertical,vertical
1c,20,100161,2,17,81,20,M,NA,variable,homogeneous,5,absent,0.627297878265381,1,horizontal,horizontal,1,0.811758127212524,green,2,NaN,963.910840470068,795.341332995339,NaN,NaN,664.870587620533,816.252264519889,963.910840470068,795.341332995339,1036.43188291453,504.475318678942,782.212099195248,345.621167183745,552.574589799621,538.309916622085,0,0,0,4,0,0,0,NaN,horizontal,horizontal,horizontal,vertical,vertical,none
1c,20,100161,2,18,82,20,M,NA,variable,homogeneous,6,absent,0.58217191696167,1,horizontal,horizontal,1,0.905872850418091,red,2,NaN,970.628304621509,789.501930496736,NaN,NaN,721.200666434388,842.519411655264,970.628304621509,789.501930496736,1049.42763818712,546.982518841471,878.799333565612,357.480588344736,629.371695378491,410.498069503264,550.57236181288,653.017481158529,0,4,0,0,0,0,vertical,horizontal,horizontal,horizontal,vertical,horizontal
1c,20,100161,2,19,83,20,M,NA,variable,homogeneous,5,absent,0.511101007461548,0,vertical,horizontal,1,1.05880927562714,green,5,NaN,593.700666434388,749.885239334581,NaN,NaN,878.799333565612,842.519411655264,1055,600,878.799333565612,357.480588344736,593.700666434388,450.114760665419,593.700666434388,749.885239334581,0,0,0,0,0,0,4,NaN,horizontal,vertical,vertical,vertical,vertical,none
1c,20,100161,2,20,84,20,M,NA,variable,homogeneous,4,absent,0.960098028182983,1,vertical,vertical,1,0.729407744407654,green,2,NaN,992.450942956807,432.704947607421,NaN,NaN,967.295052392579,792.450942956807,992.450942956807,432.704947607421,632.704947607421,407.549057043193,607.549057043193,767.295052392579,0,0,0,0,0,4,0,0,NaN,NaN,horizontal,vertical,vertical,vertical,none,none
1c,20,100161,2,21,85,20,M,NA,variable,homogeneous,6,present,0.532065868377686,1,vertical,vertical,1,0.847051148414612,green,3,6,963.910840470068,404.658667004661,636.089159529932,795.341332995339,887.215136548046,839.621618300407,1051.12597701811,644.280285305067,963.910840470068,404.658667004661,712.784863451954,360.378381699593,548.874022981887,555.719714694933,636.089159529932,795.341332995339,0,0,4,0,0,0,vertical,horizontal,vertical,horizontal,vertical,vertical
1c,20,100161,2,22,86,20,M,NA,variable,homogeneous,3,absent,0.624552011489868,1,horizontal,horizontal,1,0.870579829216003,green,1,NaN,848.656293821019,850.314931779154,NaN,NaN,848.656293821019,850.314931779154,992.450942956807,432.704947607421,558.892763222174,516.980120613425,0,0,0,0,0,0,4,0,0,NaN,NaN,NaN,horizontal,vertical,horizontal,none,none,none
1c,20,100161,2,23,87,20,M,NA,variable,homogeneous,3,absent,0.669606924057007,1,vertical,vertical,1,0.82352246761322,red,3,NaN,593.700666434388,450.114760665419,NaN,NaN,773.345241866748,853.60308331891,1032.95409169886,496.282156015671,593.700666434388,450.114760665419,0,0,0,0,0,0,0,0,4,NaN,NaN,NaN,horizontal,vertical,vertical,none,none,none
1c,20,100161,2,24,88,20,M,NA,variable,homogeneous,4,present,0.63788104057312,1,horizontal,horizontal,1,0.717643404006958,green,2,1,1050.31493177915,648.656293821019,751.343706178981,850.314931779154,751.343706178981,850.314931779154,1050.31493177915,648.656293821019,848.656293821019,349.685068220846,549.685068220846,551.343706178981,0,0,0,0,0,4,0,0,NaN,NaN,horizontal,horizontal,vertical,horizontal,none,none
1c,20,100161,2,25,89,20,M,NA,variable,homogeneous,4,absent,0.851978063583374,1,vertical,vertical,1,0.858815488815308,red,4,NaN,545.970351986605,622.224714400653,NaN,NaN,822.224714400653,854.029648013395,1054.0296480134,577.775285599347,777.775285599347,345.970351986605,545.970351986605,622.224714400653,0,0,0,0,0,0,0,4,NaN,NaN,horizontal,vertical,vertical,vertical,none,none
1c,20,100161,2,26,90,20,M,NA,variable,homogeneous,6,absent,0.58714485168457,1,horizontal,horizontal,1,1.09410229682922,green,4,NaN,865.998856501143,353.688914296288,NaN,NaN,734.001143498857,846.311085703712,980.31222920257,780.31222920257,1046.31108570371,534.001143498857,865.998856501143,353.688914296288,619.68777079743,419.68777079743,553.688914296288,665.998856501143,0,0,0,4,0,0,vertical,vertical,vertical,horizontal,horizontal,vertical
1c,20,100161,2,27,91,20,M,NA,variable,homogeneous,6,absent,0.989896059036255,1,vertical,vertical,1,0.74117208480835,green,1,NaN,878.799333565612,842.519411655264,NaN,NaN,878.799333565612,842.519411655264,1049.42763818712,653.017481158529,970.628304621509,410.498069503264,721.200666434388,357.480588344736,550.57236181288,546.982518841471,629.371695378491,789.501930496736,4,0,0,0,0,0,vertical,horizontal,horizontal,vertical,vertical,horizontal
1c,20,100161,2,28,92,20,M,NA,variable,homogeneous,3,absent,0.697956085205078,1,horizontal,horizontal,1,1.01175191402435,red,3,NaN,548.874022981887,644.280285305067,NaN,NaN,963.910840470068,795.341332995339,887.215136548046,360.378381699593,548.874022981887,644.280285305067,0,0,0,0,0,0,0,0,4,NaN,NaN,NaN,vertical,vertical,horizontal,none,none,none
1c,20,100161,2,29,93,20,M,NA,variable,homogeneous,4,absent,0.588921070098877,1,horizontal,horizontal,1,1.03528059482574,red,1,NaN,919.715248510402,825.151636179026,NaN,NaN,919.715248510402,825.151636179026,1025.15163617903,480.284751489598,680.284751489598,374.848363820974,574.848363820974,719.715248510402,0,0,0,0,4,0,0,0,NaN,NaN,horizontal,horizontal,vertical,vertical,none,none
1c,20,100161,2,30,94,20,M,NA,variable,homogeneous,5,absent,0.856871128082275,1,vertical,vertical,1,0.788229446411133,green,3,NaN,953.462830903772,396.34794493794,NaN,NaN,795.549636358493,854.96116226488,1041.10723677783,683.019879386575,953.462830903772,396.34794493794,653.738008730483,391.116228706307,556.142287229426,674.554784704298,0,0,0,0,4,0,0,NaN,horizontal,vertical,vertical,vertical,horizontal,none
1c,20,100161,2,31,95,20,M,NA,variable,homogeneous,4,absent,0.648891925811768,1,vertical,vertical,1,0.941165871620178,green,4,NaN,546.39691668109,573.345241866748,NaN,NaN,773.345241866748,853.60308331891,1053.60308331891,626.654758133252,826.654758133252,346.39691668109,546.39691668109,573.345241866748,0,0,0,0,0,0,0,4,NaN,NaN,vertical,horizontal,vertical,vertical,none,none
1c,20,100161,2,32,96,20,M,NA,variable,homogeneous,6,absent,0.554846048355103,1,vertical,vertical,1,0.635293021202087,red,3,NaN,953.462830903772,396.34794493794,NaN,NaN,899.636437764765,834.728737630372,1053.09926866854,631.076682568313,953.462830903772,396.34794493794,700.363562235235,365.271262369628,546.900731331463,568.923317431687,646.537169096228,803.65205506206,0,0,4,0,0,0,horizontal,vertical,vertical,vertical,vertical,horizontal
1c,20,100161,2,33,97,20,M,NA,variable,homogeneous,3,present,0.498292922973633,1,vertical,vertical,1,0.611764340400696,green,2,3,946.261991269517,391.116228706307,545.970351986605,577.775285599347,907.767656743878,831.108485694346,946.261991269517,391.116228706307,545.970351986605,577.775285599347,0,0,0,0,0,0,0,4,0,NaN,NaN,NaN,horizontal,vertical,vertical,none,none,none
1c,20,100161,2,34,98,20,M,NA,variable,homogeneous,3,absent,0.733161926269531,1,vertical,vertical,1,1.03528059482574,green,1,NaN,729.712474266665,845.121732464271,NaN,NaN,729.712474266665,845.121732464271,1047.42541020038,538.309916622085,622.862115532956,416.568350913644,0,0,0,0,0,0,4,0,0,NaN,NaN,NaN,vertical,horizontal,vertical,none,none,none
1c,20,100161,2,35,99,20,M,NA,variable,homogeneous,3,present,0.766094923019409,1,vertical,vertical,1,0.905872850418091,red,1,2,870.287525733335,845.121732464271,977.137884467044,416.568350913644,870.287525733335,845.121732464271,977.137884467044,416.568350913644,552.574589799621,538.309916622085,0,0,0,0,0,0,4,0,0,NaN,NaN,NaN,vertical,horizontal,vertical,none,none,none
1c,20,100161,2,36,100,20,M,NA,variable,homogeneous,5,absent,0.549694061279297,1,vertical,vertical,1,0.6,red,1,NaN,680.284751489598,825.151636179026,NaN,NaN,680.284751489598,825.151636179026,977.137884467044,783.431649086356,1029.19248180629,488.215357568785,764.510859255183,347.4816424709,548.874022981887,555.719714694933,0,0,4,0,0,0,0,NaN,vertical,vertical,vertical,horizontal,vertical,none
1c,20,100161,2,37,101,20,M,NA,variable,homogeneous,4,absent,0.725137948989868,1,horizontal,horizontal,1,1.02351625442505,green,3,NaN,636.089159529932,404.658667004661,NaN,NaN,963.910840470068,795.341332995339,995.341332995339,436.089159529932,636.089159529932,404.658667004661,604.658667004661,763.910840470068,0,0,0,0,0,0,4,0,NaN,NaN,vertical,horizontal,horizontal,horizontal,none,none
1c,20,100161,2,38,102,20,M,NA,variable,homogeneous,3,absent,0.584491014480591,1,vertical,vertical,1,0.635293021202087,green,3,NaN,692.232343256122,368.891514305654,NaN,NaN,653.738008730483,808.883771293693,1054.0296480134,622.224714400653,692.232343256122,368.891514305654,0,0,0,0,0,0,0,0,4,NaN,NaN,NaN,horizontal,vertical,vertical,none,none,none
1c,20,100161,2,39,103,20,M,NA,variable,homogeneous,5,present,0.655681133270264,1,horizontal,horizontal,1,0.764700765609741,red,4,2,725.445215295702,356.142287229426,1003.65205506206,753.462830903772,716.980120613425,841.107236777826,1003.65205506206,753.462830903772,1008.88377129369,453.738008730483,725.445215295702,356.142287229426,545.03883773512,595.549636358493,0,0,0,0,0,4,0,NaN,horizontal,vertical,vertical,horizontal,vertical,none
1c,20,100161,2,40,104,20,M,NA,variable,homogeneous,4,present,0.636860132217407,1,vertical,vertical,1,0.6,red,4,1,610.498069503264,770.628304621509,970.628304621509,789.501930496736,970.628304621509,789.501930496736,989.501930496736,429.371695378491,629.371695378491,410.498069503264,610.498069503264,770.628304621509,0,0,0,0,0,0,0,4,NaN,NaN,horizontal,vertical,horizontal,vertical,none,none
1c,20,100161,2,41,105,20,M,NA,variable,homogeneous,6,absent,0.844911098480225,1,horizontal,horizontal,1,0.952930212020874,red,5,NaN,565.271262369628,500.363562235235,NaN,NaN,831.076682568313,853.099268668537,1034.72873763037,699.636437764765,1003.65205506206,446.537169096228,768.923317431687,346.900731331463,565.271262369628,500.363562235235,596.34794493794,753.462830903772,0,0,0,0,4,0,horizontal,vertical,vertical,horizontal,horizontal,vertical
1c,20,100161,2,42,106,20,M,NA,variable,homogeneous,6,absent,0.569113969802856,1,horizontal,horizontal,1,0.764700765609741,green,3,NaN,973.909581815937,413.504806087112,NaN,NaN,874.554784704298,843.857712770574,1048.46436652023,657.362518857686,973.909581815937,413.504806087112,725.445215295702,356.142287229426,551.535633479765,542.637481142314,626.090418184063,786.495193912888,0,0,4,0,0,0,horizontal,horizontal,horizontal,vertical,horizontal,vertical
1c,20,100161,2,43,107,20,M,NA,variable,homogeneous,3,present,0.51311206817627,1,vertical,vertical,1,0.623528680801392,green,2,3,946.261991269517,391.116228706307,545.970351986605,577.775285599347,907.767656743878,831.108485694346,946.261991269517,391.116228706307,545.970351986605,577.775285599347,0,0,0,0,0,0,0,4,0,NaN,NaN,NaN,vertical,vertical,horizontal,none,none,none
1c,20,100161,2,44,108,20,M,NA,variable,homogeneous,6,present,0.706905126571655,1,horizontal,horizontal,1,0.752936425209045,green,2,1,986.495193912888,773.909581815937,742.637481142314,848.464366520235,742.637481142314,848.464366520235,986.495193912888,773.909581815937,1043.85771277057,525.445215295702,857.362518857686,351.535633479765,613.504806087112,426.090418184063,556.142287229426,674.554784704298,0,4,0,0,0,0,horizontal,horizontal,horizontal,vertical,horizontal,vertical
1c,20,100161,2,45,109,20,M,NA,variable,homogeneous,3,present,0.671336889266968,1,horizontal,horizontal,1,0.717643404006958,green,1,3,653.738008730483,808.883771293693,692.232343256122,368.891514305654,653.738008730483,808.883771293693,1054.0296480134,622.224714400653,692.232343256122,368.891514305654,0,0,0,0,0,0,4,0,0,NaN,NaN,NaN,horizontal,vertical,vertical,none,none,none
1c,20,100161,2,46,110,20,M,NA,variable,homogeneous,3,present,0.572185039520264,1,horizontal,horizontal,1,0.952930212020874,green,1,2,626.090418184063,786.495193912888,1048.46436652023,657.362518857686,626.090418184063,786.495193912888,1048.46436652023,657.362518857686,725.445215295702,356.142287229426,0,0,0,0,0,0,4,0,0,NaN,NaN,NaN,horizontal,vertical,vertical,none,none,none
1c,20,100161,2,47,111,20,M,NA,variable,homogeneous,4,absent,0.560404062271118,1,horizontal,horizontal,1,0.635293021202087,green,3,NaN,953.462830903772,396.34794493794,NaN,NaN,646.537169096228,803.65205506206,1003.65205506206,753.462830903772,953.462830903772,396.34794493794,596.34794493794,446.537169096228,0,0,0,0,0,0,4,0,NaN,NaN,horizontal,horizontal,horizontal,horizontal,none,none
1c,20,100161,2,48,112,20,M,NA,variable,homogeneous,4,present,0.669595956802368,0,horizontal,vertical,1,0.894108510017395,red,4,1,553.688914296288,534.001143498857,734.001143498857,846.311085703712,734.001143498857,846.311085703712,1046.31108570371,665.998856501143,865.998856501143,353.688914296288,553.688914296288,534.001143498857,0,0,0,0,0,0,0,4,NaN,NaN,vertical,horizontal,vertical,horizontal,none,none
1c,20,100161,2,49,113,20,M,NA,variable,homogeneous,4,present,1.05392789840698,1,vertical,vertical,1,0.74117208480835,green,3,1,848.656293821019,349.685068220846,751.343706178981,850.314931779154,751.343706178981,850.314931779154,1050.31493177915,648.656293821019,848.656293821019,349.685068220846,549.685068220846,551.343706178981,0,0,0,0,0,0,4,0,NaN,NaN,vertical,vertical,vertical,vertical,none,none
1c,20,100161,2,50,114,20,M,NA,variable,homogeneous,5,present,0.721338987350464,1,vertical,vertical,1,0.905872850418091,red,1,2,688.215357568785,829.192481806288,983.431649086356,777.137884467044,688.215357568785,829.192481806288,983.431649086356,777.137884467044,1025.15163617903,480.284751489598,755.719714694933,348.874022981887,547.481642470899,564.510859255183,0,0,4,0,0,0,0,NaN,vertical,vertical,horizontal,vertical,horizontal,none
1c,20,100161,2,51,115,20,M,NA,variable,homogeneous,5,absent,0.910233020782471,1,horizontal,horizontal,1,0.905872850418091,red,5,NaN,546.39691668109,573.345241866748,NaN,NaN,696.282156015671,832.954091698863,989.501930496736,770.628304621509,1020.83647796503,472.5,746.982518841471,350.57236181288,546.39691668109,573.345241866748,0,0,0,0,0,0,4,NaN,horizontal,horizontal,vertical,vertical,horizontal,none
1c,20,100161,2,52,116,20,M,NA,variable,homogeneous,5,absent,0.634027004241943,1,vertical,vertical,1,0.670586042404175,red,3,NaN,1038.06300875679,508.616172865948,NaN,NaN,661.117046071168,813.860994826083,960.476699717708,798.172220171528,1038.06300875679,508.616172865948,786.654331158049,345.349468637584,553.688914296288,534.001143498857,0,0,0,0,4,0,0,NaN,horizontal,horizontal,vertical,horizontal,horizontal,none
1c,20,100161,2,53,117,20,M,NA,variable,homogeneous,6,present,0.584126949310303,1,vertical,vertical,1,0.858815488815308,green,6,4,561.936991243214,691.383827134052,839.890788585259,348.13947314824,760.109211414741,851.86052685176,998.172220171528,760.476699717708,1038.06300875679,508.616172865948,839.890788585259,348.13947314824,601.827779828472,439.523300282291,561.936991243214,691.383827134052,0,0,0,0,0,4,vertical,horizontal,horizontal,vertical,vertical,vertical
1c,20,100161,2,54,118,20,M,NA,variable,homogeneous,5,absent,1.79633092880249,1,horizontal,horizontal,1,0.623528680801392,red,3,NaN,963.910840470068,404.658667004661,NaN,NaN,782.212099195248,854.378832816255,1036.43188291453,695.524681321058,963.910840470068,404.658667004661,664.870587620533,383.747735480111,552.574589799621,661.690083377915,0,0,0,0,4,0,0,NaN,vertical,vertical,horizontal,horizontal,vertical,none
1c,20,100161,2,55,119,20,M,NA,variable,homogeneous,3,present,0.670262813568115,1,vertical,vertical,1,0.894108510017395,red,2,3,870.287525733335,354.878267535729,552.574589799621,661.690083377915,977.137884467044,783.431649086356,870.287525733335,354.878267535729,552.574589799621,661.690083377915,0,0,0,0,0,0,0,4,0,NaN,NaN,NaN,horizontal,vertical,horizontal,none,none,none
1c,20,100161,2,56,120,20,M,NA,variable,homogeneous,5,present,0.801739931106567,1,vertical,vertical,1,0.682350382804871,red,5,1,646.537169096228,803.65205506206,946.261991269517,808.883771293693,946.261991269517,808.883771293693,1043.85771277057,525.445215295702,804.450363641507,345.03883773512,558.892763222174,516.980120613425,646.537169096228,803.65205506206,0,0,0,0,0,0,4,NaN,vertical,horizontal,vertical,vertical,vertical,none
1c,20,100161,2,57,121,20,M,NA,variable,homogeneous,6,present,0.731460094451904,1,horizontal,horizontal,1,0.882344169616699,red,1,2,791.100628340862,854.844660889869,1016.25226451989,735.129412379467,791.100628340862,854.844660889869,1016.25226451989,735.129412379467,1025.15163617903,480.284751489598,808.899371659138,345.155339110131,583.747735480111,464.870587620533,574.848363820974,719.715248510402,4,0,0,0,0,0,horizontal,vertical,horizontal,vertical,vertical,vertical
1c,20,100161,2,58,122,20,M,NA,variable,homogeneous,3,absent,0.72967004776001,1,horizontal,horizontal,1,0.96469455242157,green,3,NaN,570.807518193712,488.215357568785,NaN,NaN,817.787900804752,854.378832816255,1011.40458100154,457.40580961496,570.807518193712,488.215357568785,0,0,0,0,0,0,0,0,4,NaN,NaN,NaN,vertical,horizontal,horizontal,none,none,none
1c,20,100161,2,59,123,20,M,NA,variable,homogeneous,5,present,0.584146022796631,1,horizontal,horizontal,1,0.788229446411133,red,4,5,795.549636358493,345.03883773512,556.142287229426,525.445215295702,653.738008730483,808.883771293693,953.462830903772,803.65205506206,1041.10723677783,516.980120613425,795.549636358493,345.03883773512,556.142287229426,525.445215295702,0,0,0,0,0,4,0,NaN,horizontal,vertical,vertical,horizontal,horizontal,none
1c,20,100161,2,60,124,20,M,NA,variable,homogeneous,3,absent,0.406347990036011,0,vertical,horizontal,1,0.717643404006958,red,3,NaN,653.738008730483,391.116228706307,NaN,NaN,692.232343256122,831.108485694346,1054.0296480134,577.775285599347,653.738008730483,391.116228706307,0,0,0,0,0,0,0,0,4,NaN,NaN,NaN,vertical,vertical,vertical,none,none,none
1c,20,100161,2,61,125,20,M,NA,variable,homogeneous,4,absent,0.713233947753906,1,vertical,vertical,1,0.929401531219482,red,3,NaN,650.114760665419,393.700666434388,NaN,NaN,949.885239334581,806.299333565612,1006.29933356561,450.114760665419,650.114760665419,393.700666434388,593.700666434388,749.885239334581,0,0,0,0,0,0,4,0,NaN,NaN,vertical,horizontal,vertical,horizontal,none,none
1c,20,100161,2,62,126,20,M,NA,variable,homogeneous,3,present,0.6074059009552,1,horizontal,horizontal,1,0.788229446411133,red,2,1,813.345668841951,345.349468637584,1013.86099482608,738.882953928832,1013.86099482608,738.882953928832,813.345668841951,345.349468637584,572.793336331966,715.767577433584,0,0,0,0,0,0,0,4,0,NaN,NaN,NaN,horizontal,horizontal,vertical,none,none,none
1c,20,100161,2,63,127,20,M,NA,variable,homogeneous,4,absent,1.20365881919861,1,horizontal,horizontal,1,0.799993786811829,red,4,NaN,547.481642470899,564.510859255183,NaN,NaN,764.510859255183,852.518357529101,1052.5183575291,635.489140744817,835.489140744817,347.4816424709,547.481642470899,564.510859255183,0,0,0,0,0,0,0,4,NaN,NaN,horizontal,horizontal,horizontal,horizontal,none,none
1c,20,100161,2,64,128,20,M,NA,variable,homogeneous,5,present,0.640389919281006,1,vertical,vertical,1,0.82352246761322,green,3,5,989.501930496736,429.371695378491,546.39691668109,626.654758133252,746.982518841471,849.42763818712,1020.83647796503,727.5,989.501930496736,429.371695378491,696.282156015671,367.045908301137,546.39691668109,626.654758133252,0,0,0,0,4,0,0,NaN,horizontal,vertical,vertical,vertical,horizontal,none
1c,20,100161,3,1,129,20,M,NA,variable,homogeneous,5,present,0.892601013183594,1,vertical,vertical,1,0.811758127212524,green,3,5,800,345,650.114760665419,806.299333565612,949.885239334581,806.299333565612,1042.51941165526,521.200666434388,800,345,557.480588344736,521.200666434388,650.114760665419,806.299333565612,0,0,0,0,4,0,0,NaN,horizontal,horizontal,vertical,horizontal,vertical,none
1c,20,100161,3,2,130,20,M,NA,variable,homogeneous,5,absent,0.753900051116943,1,horizontal,horizontal,1,0.752936425209045,green,2,NaN,973.909581815937,786.495193912888,NaN,NaN,676.373546837184,823.028025320546,973.909581815937,786.495193912888,1031.10848569435,492.232343256122,768.923317431687,346.900731331463,549.685068220846,551.343706178981,0,0,0,4,0,0,0,NaN,horizontal,horizontal,horizontal,horizontal,horizontal,none
1c,20,100161,3,3,131,20,M,NA,variable,homogeneous,4,present,0.708788871765137,1,horizontal,horizontal,1,0.776465106010437,red,3,4,712.784863451954,360.378381699593,560.378381699593,687.215136548046,887.215136548046,839.621618300407,1039.62161830041,512.784863451954,712.784863451954,360.378381699593,560.378381699593,687.215136548046,0,0,0,0,0,0,4,0,NaN,NaN,vertical,vertical,horizontal,horizontal,none,none
1c,20,100161,3,4,132,20,M,NA,variable,homogeneous,4,absent,0.72011399269104,1,horizontal,horizontal,1,1.04704493522644,green,4,NaN,545.349468637584,586.654331158049,NaN,NaN,786.654331158049,854.650531362416,1054.65053136242,613.345668841951,813.345668841951,345.349468637584,545.349468637584,586.654331158049,0,0,0,0,0,0,0,4,NaN,NaN,horizontal,horizontal,horizontal,horizontal,none,none
1c,20,100161,3,5,133,20,M,NA,variable,homogeneous,4,present,0.775715827941895,1,vertical,vertical,1,0.647057361602783,green,1,2,653.738008730483,808.883771293693,1008.88377129369,746.261991269517,653.738008730483,808.883771293693,1008.88377129369,746.261991269517,946.261991269517,391.116228706307,591.116228706307,453.738008730483,0,0,0,0,4,0,0,0,NaN,NaN,vertical,vertical,vertical,horizontal,none,none
1c,20,100161,3,6,134,20,M,NA,variable,homogeneous,3,absent,0.807152032852173,1,vertical,vertical,1,0.788229446411133,green,2,NaN,1053.09926866854,631.076682568313,NaN,NaN,646.537169096228,803.65205506206,1053.09926866854,631.076682568313,700.363562235235,365.271262369628,0,0,0,0,0,0,0,4,0,NaN,NaN,NaN,vertical,vertical,vertical,none,none,none
1c,20,100161,3,7,135,20,M,NA,variable,homogeneous,6,present,0.655802965164185,1,horizontal,horizontal,1,0.611764340400696,green,3,4,1020.83647796503,472.5,800,345,800,855,1020.83647796503,727.5,1020.83647796503,472.5,800,345,579.163522034968,472.5,579.163522034968,727.5,0,0,4,0,0,0,vertical,horizontal,horizontal,vertical,horizontal,vertical
1c,20,100161,3,8,136,20,M,NA,variable,homogeneous,5,absent,0.732897996902466,1,horizontal,horizontal,1,0.999987573623657,red,2,NaN,980.31222920257,780.31222920257,NaN,NaN,684.232422566416,827.206663668034,980.31222920257,780.31222920257,1027.20666366803,484.232422566416,760.109211414741,348.13947314824,548.13947314824,560.109211414741,0,0,0,4,0,0,0,NaN,vertical,horizontal,horizontal,horizontal,horizontal,none
1c,20,100161,3,9,137,20,M,NA,variable,homogeneous,4,present,0.705564022064209,1,horizontal,horizontal,1,1.09410229682922,green,1,4,895.524681321058,836.431882914531,563.568117085469,695.524681321058,895.524681321058,836.431882914531,1036.43188291453,504.475318678942,704.475318678942,363.568117085469,563.568117085469,695.524681321058,0,0,0,0,4,0,0,0,NaN,NaN,horizontal,horizontal,vertical,horizontal,none,none
1c,20,100161,3,10,138,20,M,NA,variable,homogeneous,6,present,0.612082004547119,1,horizontal,horizontal,1,0.999987573623657,green,4,6,782.212099195248,345.621167183745,588.595418998464,742.594190385041,817.787900804752,854.378832816255,1029.19248180629,711.784642431215,1011.40458100154,457.40580961496,782.212099195248,345.621167183745,570.807518193712,488.215357568785,588.595418998464,742.594190385041,0,0,0,4,0,0,vertical,horizontal,vertical,horizontal,horizontal,horizontal
1c,20,100161,3,11,139,20,M,NA,variable,homogeneous,4,absent,0.759691953659058,1,horizontal,horizontal,1,0.96469455242157,green,4,NaN,545.970351986605,622.224714400653,NaN,NaN,822.224714400653,854.029648013395,1054.0296480134,577.775285599347,777.775285599347,345.970351986605,545.970351986605,622.224714400653,0,0,0,0,0,0,0,4,NaN,NaN,vertical,vertical,horizontal,horizontal,none,none
1c,20,100161,3,12,140,20,M,NA,variable,homogeneous,3,absent,0.899209022521973,1,vertical,vertical,1,0.999987573623657,red,2,NaN,1039.62161830041,512.784863451954,NaN,NaN,755.719714694933,851.125977018113,1039.62161830041,512.784863451954,604.658667004661,436.089159529932,0,0,0,0,0,0,0,4,0,NaN,NaN,NaN,vertical,vertical,vertical,none,none,none
1c,20,100161,3,13,141,20,M,NA,variable,homogeneous,3,present,0.599852085113525,1,vertical,vertical,1,0.929401531219482,green,3,2,547.481642470899,635.489140744817,895.524681321058,363.568117085469,956.993676208043,800.942742169714,895.524681321058,363.568117085469,547.481642470899,635.489140744817,0,0,0,0,0,0,0,0,4,NaN,NaN,NaN,horizontal,horizontal,vertical,none,none,none
1c,20,100161,3,14,142,20,M,NA,variable,homogeneous,3,present,0.809473991394043,1,vertical,vertical,1,1.05880927562714,red,2,3,800,345,579.163522034968,727.5,1020.83647796503,727.5,800,345,579.163522034968,727.5,0,0,0,0,0,0,0,4,0,NaN,NaN,NaN,horizontal,vertical,vertical,none,none,none
1c,20,100161,3,15,143,20,M,NA,variable,homogeneous,4,present,0.6907958984375,1,horizontal,horizontal,1,0.658821702003479,red,1,3,848.656293821019,850.314931779154,751.343706178981,349.685068220846,848.656293821019,850.314931779154,1050.31493177915,551.343706178981,751.343706178981,349.685068220846,549.685068220846,648.656293821019,0,0,0,0,4,0,0,0,NaN,NaN,horizontal,vertical,vertical,horizontal,none,none
1c,20,100161,3,16,144,20,M,NA,variable,homogeneous,3,absent,0.51341700553894,1,horizontal,horizontal,1,0.635293021202087,red,1,NaN,716.980120613425,841.107236777826,NaN,NaN,716.980120613425,841.107236777826,1050.31493177915,551.343706178981,632.704947607421,407.549057043193,0,0,0,0,0,0,4,0,0,NaN,NaN,NaN,horizontal,horizontal,vertical,none,none,none
1c,20,100161,3,17,145,20,M,NA,variable,homogeneous,5,absent,0.492225170135498,1,horizontal,horizontal,1,1.02351625442505,red,2,NaN,970.628304621509,789.501930496736,NaN,NaN,672.5,820.836477965032,970.628304621509,789.501930496736,1032.95409169886,496.282156015671,773.345241866748,346.39691668109,550.57236181288,546.982518841471,0,0,0,4,0,0,0,NaN,vertical,horizontal,horizontal,vertical,vertical,none
1c,20,100161,3,18,146,20,M,NA,variable,homogeneous,5,present,0.983501195907593,1,vertical,vertical,1,1.07057361602783,green,5,2,563.568117085469,695.524681321058,1047.42541020038,661.690083377915,817.787900804752,854.378832816255,1047.42541020038,661.690083377915,935.129412379467,383.747735480111,636.089159529932,404.658667004661,563.568117085469,695.524681321058,0,0,0,0,0,0,4,NaN,horizontal,vertical,horizontal,vertical,vertical,none
1c,20,100161,3,19,147,20,M,NA,variable,homogeneous,4,present,0.58451509475708,1,vertical,vertical,1,0.658821702003479,red,1,2,668.665290897936,818.577661679039,1018.57766167904,731.334709102064,668.665290897936,818.577661679039,1018.57766167904,731.334709102064,931.334709102064,381.422338320961,581.422338320961,468.665290897936,0,0,0,0,4,0,0,0,NaN,NaN,vertical,vertical,horizontal,vertical,none,none
1c,20,100161,3,20,148,20,M,NA,variable,homogeneous,4,present,0.646230936050415,1,horizontal,horizontal,1,0.694114723205566,green,2,3,992.450942956807,432.704947607421,632.704947607421,407.549057043193,967.295052392579,792.450942956807,992.450942956807,432.704947607421,632.704947607421,407.549057043193,607.549057043193,767.295052392579,0,0,0,0,0,4,0,0,NaN,NaN,vertical,horizontal,vertical,horizontal,none,none
1c,20,100161,3,21,149,20,M,NA,variable,homogeneous,4,absent,0.612200021743774,1,horizontal,horizontal,1,0.647057361602783,red,1,NaN,632.704947607421,792.450942956807,NaN,NaN,632.704947607421,792.450942956807,992.450942956807,767.295052392579,967.295052392579,407.549057043193,607.549057043193,432.704947607421,0,0,0,0,4,0,0,0,NaN,NaN,horizontal,horizontal,horizontal,vertical,none,none
1c,20,100161,3,22,150,20,M,NA,variable,homogeneous,6,present,1.16957187652588,1,horizontal,horizontal,1,0.835286808013916,red,2,3,967.295052392579,792.450942956807,1050.31493177915,551.343706178981,716.980120613425,841.107236777826,967.295052392579,792.450942956807,1050.31493177915,551.343706178981,883.019879386575,358.892763222174,632.704947607421,407.549057043193,549.685068220846,648.656293821019,0,4,0,0,0,0,vertical,horizontal,vertical,vertical,horizontal,horizontal
1c,20,100161,3,23,151,20,M,NA,variable,homogeneous,6,present,0.864627122879028,1,vertical,vertical,1,0.776465106010437,green,1,5,746.982518841471,849.42763818712,610.498069503264,429.371695378491,746.982518841471,849.42763818712,989.501930496736,770.628304621509,1042.51941165526,521.200666434388,853.017481158529,350.57236181288,610.498069503264,429.371695378491,557.480588344736,678.799333565612,4,0,0,0,0,0,vertical,horizontal,vertical,vertical,horizontal,vertical
1c,20,100161,3,24,152,20,M,NA,variable,homogeneous,6,absent,0.674720048904419,1,vertical,vertical,1,0.623528680801392,green,5,NaN,557.480588344736,521.200666434388,NaN,NaN,853.017481158529,849.42763818712,1042.51941165526,678.799333565612,989.501930496736,429.371695378491,746.982518841471,350.57236181288,557.480588344736,521.200666434388,610.498069503264,770.628304621509,0,0,0,0,4,0,vertical,horizontal,horizontal,vertical,vertical,vertical
1c,20,100161,3,25,153,20,M,NA,variable,homogeneous,6,absent,0.689985990524292,1,horizontal,horizontal,1,0.694114723205566,green,6,NaN,650.114760665419,806.299333565612,NaN,NaN,903.717843984329,832.954091698863,1053.60308331891,626.654758133252,949.885239334581,393.700666434388,696.282156015671,367.045908301137,546.39691668109,573.345241866748,650.114760665419,806.299333565612,0,0,0,0,0,4,vertical,horizontal,horizontal,vertical,vertical,horizontal
1c,20,100161,3,26,154,20,M,NA,variable,homogeneous,4,absent,0.644029855728149,1,horizontal,horizontal,1,0.6,red,4,NaN,545.970351986605,622.224714400653,NaN,NaN,822.224714400653,854.029648013395,1054.0296480134,577.775285599347,777.775285599347,345.970351986605,545.970351986605,622.224714400653,0,0,0,0,0,0,0,4,NaN,NaN,vertical,horizontal,horizontal,horizontal,none,none
1c,20,100161,3,27,155,20,M,NA,variable,homogeneous,5,absent,0.716871023178101,1,vertical,vertical,1,0.999987573623657,green,2,NaN,1049.42763818712,546.982518841471,NaN,NaN,927.5,820.836477965032,1049.42763818712,546.982518841471,826.654758133252,346.39691668109,567.045908301137,496.282156015671,629.371695378491,789.501930496736,0,0,0,4,0,0,0,NaN,horizontal,vertical,horizontal,horizontal,vertical,none
1c,20,100161,3,28,156,20,M,NA,variable,homogeneous,3,present,0.639880895614624,1,horizontal,horizontal,1,0.611764340400696,red,3,2,556.142287229426,674.554784704298,857.362518857686,351.535633479765,986.495193912888,773.909581815937,857.362518857686,351.535633479765,556.142287229426,674.554784704298,0,0,0,0,0,0,0,0,4,NaN,NaN,NaN,vertical,vertical,horizontal,none,none,none
1c,20,100161,3,29,157,20,M,NA,variable,homogeneous,5,present,0.981064081192017,1,horizontal,horizontal,1,0.811758127212524,red,4,5,684.232422566416,372.793336331966,548.13947314824,639.890788585259,760.109211414741,851.86052685176,1027.20666366803,715.767577433584,980.31222920257,419.68777079743,684.232422566416,372.793336331966,548.13947314824,639.890788585259,0,0,0,0,0,4,0,NaN,horizontal,horizontal,vertical,horizontal,horizontal,none
1c,20,100161,3,30,158,20,M,NA,variable,homogeneous,4,present,0.679440021514893,1,vertical,vertical,1,0.729407744407654,red,4,1,583.747735480111,464.870587620533,664.870587620533,816.252264519889,664.870587620533,816.252264519889,1016.25226451989,735.129412379467,935.129412379467,383.747735480111,583.747735480111,464.870587620533,0,0,0,0,0,0,0,4,NaN,NaN,horizontal,horizontal,horizontal,vertical,none,none
1c,20,100161,3,31,159,20,M,NA,variable,homogeneous,4,absent,0.575326919555664,1,vertical,vertical,1,0.917637190818787,red,1,NaN,768.923317431687,853.099268668537,NaN,NaN,768.923317431687,853.099268668537,1053.09926866854,631.076682568313,831.076682568313,346.900731331463,546.900731331463,568.923317431687,0,0,0,0,4,0,0,0,NaN,NaN,vertical,horizontal,horizontal,horizontal,none,none
1c,20,100161,3,32,160,20,M,NA,variable,homogeneous,3,absent,0.644681930541992,1,horizontal,horizontal,1,0.870579829216003,green,2,NaN,1018.57766167904,468.665290897936,NaN,NaN,804.450363641507,854.96116226488,1018.57766167904,468.665290897936,576.971974679454,476.373546837184,0,0,0,0,0,0,0,4,0,NaN,NaN,NaN,horizontal,horizontal,horizontal,none,none,none
1c,20,100161,3,33,161,20,M,NA,variable,homogeneous,6,absent,1.06631112098694,1,vertical,vertical,1,1.03528059482574,red,2,NaN,1038.06300875679,691.383827134052,NaN,NaN,839.890788585259,851.86052685176,1038.06300875679,691.383827134052,998.172220171528,439.523300282291,760.109211414741,348.13947314824,561.936991243214,508.616172865948,601.827779828472,760.476699717708,0,4,0,0,0,0,horizontal,vertical,vertical,vertical,vertical,horizontal
1c,20,100161,3,34,162,20,M,NA,variable,homogeneous,6,absent,0.692249059677124,1,horizontal,horizontal,1,0.82352246761322,red,2,NaN,1054.96116226488,604.450363641507,NaN,NaN,923.626453162816,823.028025320546,1054.96116226488,604.450363641507,931.334709102064,381.422338320961,676.373546837184,376.971974679454,545.03883773512,595.549636358493,668.665290897936,818.577661679039,0,4,0,0,0,0,horizontal,horizontal,vertical,vertical,horizontal,horizontal
1c,20,100161,3,35,163,20,M,NA,variable,homogeneous,6,present,1.09654378890991,1,vertical,vertical,1,0.717643404006958,red,6,5,567.045908301137,703.717843984329,593.700666434388,450.114760665419,773.345241866748,853.60308331891,1006.29933356561,749.885239334581,1032.95409169886,496.282156015671,826.654758133252,346.39691668109,593.700666434388,450.114760665419,567.045908301137,703.717843984329,0,0,0,0,0,4,vertical,horizontal,vertical,vertical,horizontal,vertical
1c,20,100161,3,36,164,20,M,NA,variable,homogeneous,3,absent,0.660314798355103,1,horizontal,horizontal,1,0.682350382804871,red,3,NaN,552.574589799621,661.690083377915,NaN,NaN,977.137884467044,783.431649086356,870.287525733335,354.878267535729,552.574589799621,661.690083377915,0,0,0,0,0,0,0,0,4,NaN,NaN,NaN,vertical,vertical,horizontal,none,none,none
1c,20,100161,3,37,165,20,M,NA,variable,homogeneous,5,absent,0.681839942932129,1,vertical,vertical,1,0.811758127212524,red,2,NaN,1053.60308331891,626.654758133252,NaN,NaN,853.017481158529,849.42763818712,1053.60308331891,626.654758133252,903.717843984329,367.045908301137,610.498069503264,429.371695378491,579.163522034968,727.5,0,0,0,4,0,0,0,NaN,vertical,vertical,horizontal,vertical,vertical,none
1c,20,100161,3,38,166,20,M,NA,variable,homogeneous,3,present,0.691926002502441,1,horizontal,horizontal,1,0.6,red,1,2,844.280285305067,851.125977018113,995.341332995339,436.089159529932,844.280285305067,851.125977018113,995.341332995339,436.089159529932,560.378381699593,512.784863451954,0,0,0,0,0,0,4,0,0,NaN,NaN,NaN,horizontal,horizontal,horizontal,none,none,none
1c,20,100161,3,39,167,20,M,NA,variable,homogeneous,3,present,0.67457914352417,1,vertical,vertical,1,0.835286808013916,green,3,2,546.39691668109,573.345241866748,949.885239334581,393.700666434388,903.717843984329,832.954091698863,949.885239334581,393.700666434388,546.39691668109,573.345241866748,0,0,0,0,0,0,0,0,4,NaN,NaN,NaN,vertical,vertical,vertical,none,none,none
1c,20,100161,3,40,168,20,M,NA,variable,homogeneous,6,absent,0.834959030151367,1,vertical,vertical,1,0.74117208480835,red,2,NaN,1027.20666366803,715.767577433584,NaN,NaN,813.345668841951,854.650531362416,1027.20666366803,715.767577433584,1013.86099482608,461.117046071168,786.654331158049,345.349468637584,572.793336331966,484.232422566416,586.139005173917,738.882953928832,0,4,0,0,0,0,horizontal,vertical,horizontal,vertical,horizontal,vertical
1c,20,100161,3,41,169,20,M,NA,variable,homogeneous,6,present,0.588207960128784,1,horizontal,horizontal,1,0.799993786811829,red,6,4,556.142287229426,674.554784704298,857.362518857686,351.535633479765,742.637481142314,848.464366520235,986.495193912888,773.909581815937,1043.85771277057,525.445215295702,857.362518857686,351.535633479765,613.504806087112,426.090418184063,556.142287229426,674.554784704298,0,0,0,0,0,4,horizontal,horizontal,horizontal,horizontal,horizontal,horizontal
1c,20,100161,3,42,170,20,M,NA,variable,homogeneous,5,absent,0.543989181518555,1,vertical,vertical,1,1.01175191402435,green,2,NaN,1048.46436652023,542.637481142314,NaN,NaN,931.334709102064,818.577661679039,1048.46436652023,542.637481142314,822.224714400653,345.970351986605,565.271262369628,500.363562235235,632.704947607421,792.450942956807,0,0,0,4,0,0,0,NaN,vertical,vertical,vertical,horizontal,horizontal,none
1c,20,100161,3,43,171,20,M,NA,variable,homogeneous,4,present,0.634689092636108,1,vertical,vertical,1,0.764700765609741,green,1,2,938.882953928832,813.860994826083,1013.86099482608,461.117046071168,938.882953928832,813.860994826083,1013.86099482608,461.117046071168,661.117046071168,386.139005173917,586.139005173917,738.882953928832,0,0,0,0,4,0,0,0,NaN,NaN,vertical,vertical,vertical,vertical,none,none
1c,20,100161,3,44,172,20,M,NA,variable,homogeneous,5,absent,0.814391851425171,1,vertical,vertical,1,0.941165871620178,red,4,NaN,721.200666434388,357.480588344736,NaN,NaN,721.200666434388,842.519411655264,1006.29933356561,749.885239334581,1006.29933356561,450.114760665419,721.200666434388,357.480588344736,545,600,0,0,0,0,0,4,0,NaN,horizontal,horizontal,horizontal,vertical,vertical,none
1c,20,100161,3,45,173,20,M,NA,variable,homogeneous,6,absent,0.534283876419067,1,horizontal,horizontal,1,0.776465106010437,green,4,NaN,746.982518841471,350.57236181288,NaN,NaN,853.017481158529,849.42763818712,1042.51941165526,678.799333565612,989.501930496736,429.371695378491,746.982518841471,350.57236181288,557.480588344736,521.200666434388,610.498069503264,770.628304621509,0,0,0,4,0,0,vertical,vertical,horizontal,horizontal,vertical,vertical
1c,20,100161,3,46,174,20,M,NA,variable,homogeneous,3,absent,0.644989013671875,1,vertical,vertical,1,0.988223233222961,red,3,NaN,755.719714694933,348.874022981887,NaN,NaN,604.658667004661,763.910840470068,1039.62161830041,687.215136548046,755.719714694933,348.874022981887,0,0,0,0,0,0,0,0,4,NaN,NaN,NaN,vertical,horizontal,vertical,none,none,none
1c,20,100161,3,47,175,20,M,NA,variable,homogeneous,4,absent,0.565978050231934,1,vertical,vertical,1,0.799993786811829,green,3,NaN,848.656293821019,349.685068220846,NaN,NaN,751.343706178981,850.314931779154,1050.31493177915,648.656293821019,848.656293821019,349.685068220846,549.685068220846,551.343706178981,0,0,0,0,0,0,4,0,NaN,NaN,vertical,vertical,vertical,vertical,none,none
1c,20,100161,3,48,176,20,M,NA,variable,homogeneous,5,present,0.922737121582031,1,vertical,vertical,1,1.05880927562714,red,1,3,704.475318678942,836.431882914531,1016.25226451989,464.870587620533,704.475318678942,836.431882914531,995.341332995339,763.910840470068,1016.25226451989,464.870587620533,738.309916622085,352.574589799621,545.621167183745,582.212099195248,0,0,4,0,0,0,0,NaN,vertical,horizontal,vertical,vertical,horizontal,none
1c,20,100161,3,49,177,20,M,NA,variable,homogeneous,6,absent,0.698904991149902,1,horizontal,horizontal,1,0.670586042404175,red,5,NaN,604.658667004661,436.089159529932,NaN,NaN,755.719714694933,851.125977018113,995.341332995339,763.910840470068,1039.62161830041,512.784863451954,844.280285305067,348.874022981887,604.658667004661,436.089159529932,560.378381699593,687.215136548046,0,0,0,0,4,0,horizontal,vertical,horizontal,horizontal,horizontal,horizontal
1c,20,100161,3,50,178,20,M,NA,variable,homogeneous,3,present,0.580818891525269,1,horizontal,horizontal,1,1.01175191402435,green,2,3,1050.31493177915,551.343706178981,632.704947607421,407.549057043193,716.980120613425,841.107236777826,1050.31493177915,551.343706178981,632.704947607421,407.549057043193,0,0,0,0,0,0,0,4,0,NaN,NaN,NaN,vertical,horizontal,horizontal,none,none,none
1c,20,100161,3,51,179,20,M,NA,variable,homogeneous,6,present,0.599027156829834,1,vertical,vertical,1,0.905872850418091,red,6,3,547.481642470899,635.489140744817,1052.5183575291,564.510859255183,704.475318678942,836.431882914531,956.993676208043,800.942742169714,1052.5183575291,564.510859255183,895.524681321058,363.568117085469,643.006323791957,399.057257830286,547.481642470899,635.489140744817,0,0,0,0,0,4,horizontal,horizontal,vertical,vertical,vertical,vertical
1c,20,100161,3,52,180,20,M,NA,variable,homogeneous,6,absent,0.667222023010254,1,vertical,vertical,1,0.799993786811829,green,4,NaN,782.212099195248,345.621167183745,NaN,NaN,817.787900804752,854.378832816255,1029.19248180629,711.784642431215,1011.40458100154,457.40580961496,782.212099195248,345.621167183745,570.807518193712,488.215357568785,588.595418998464,742.594190385041,0,0,0,4,0,0,vertical,horizontal,vertical,vertical,vertical,horizontal
1c,20,100161,3,53,181,20,M,NA,variable,homogeneous,5,present,0.595222949981689,1,horizontal,horizontal,1,0.929401531219482,red,4,2,593.700666434388,450.114760665419,1055,600,878.799333565612,842.519411655264,1055,600,878.799333565612,357.480588344736,593.700666434388,450.114760665419,593.700666434388,749.885239334581,0,0,0,0,0,4,0,NaN,horizontal,horizontal,horizontal,horizontal,vertical,none
1c,20,100161,3,54,182,20,M,NA,variable,homogeneous,3,absent,0.602427005767822,1,vertical,vertical,1,0.952930212020874,green,3,NaN,563.568117085469,504.475318678942,NaN,NaN,835.489140744817,852.518357529101,1000.94274216971,443.006323791957,563.568117085469,504.475318678942,0,0,0,0,0,0,0,0,4,NaN,NaN,NaN,vertical,horizontal,vertical,none,none,none
1c,20,100161,3,55,183,20,M,NA,variable,homogeneous,5,absent,0.699805974960327,1,horizontal,horizontal,1,0.858815488815308,green,3,NaN,967.295052392579,407.549057043193,NaN,NaN,777.775285599347,854.029648013395,1034.72873763037,699.636437764765,967.295052392579,407.549057043193,668.665290897936,381.422338320961,551.535633479765,657.362518857686,0,0,0,0,4,0,0,NaN,horizontal,vertical,horizontal,horizontal,vertical,none
1c,20,100161,3,56,184,20,M,NA,variable,homogeneous,5,present,0.491960048675537,1,horizontal,horizontal,1,0.694114723205566,green,4,3,567.045908301137,496.282156015671,826.654758133252,346.39691668109,927.5,820.836477965032,1049.42763818712,546.982518841471,826.654758133252,346.39691668109,567.045908301137,496.282156015671,629.371695378491,789.501930496736,0,0,0,0,0,4,0,NaN,horizontal,horizontal,vertical,horizontal,horizontal,none
1c,20,100161,3,57,185,20,M,NA,variable,homogeneous,5,present,0.737639904022217,1,vertical,vertical,1,0.788229446411133,red,1,5,911.784642431215,829.192481806288,616.568350913644,777.137884467044,911.784642431215,829.192481806288,1052.5183575291,564.510859255183,844.280285305067,348.874022981887,574.848363820974,480.284751489598,616.568350913644,777.137884467044,0,0,4,0,0,0,0,NaN,vertical,vertical,vertical,horizontal,vertical,none
1c,20,100161,3,58,186,20,M,NA,variable,homogeneous,4,absent,0.621876001358032,1,vertical,vertical,1,1.07057361602783,red,2,NaN,1034.72873763037,699.636437764765,NaN,NaN,700.363562235235,834.728737630372,1034.72873763037,699.636437764765,899.636437764765,365.271262369628,565.271262369628,500.363562235235,0,0,0,0,0,4,0,0,NaN,NaN,vertical,vertical,vertical,horizontal,none,none
1c,20,100161,3,59,187,20,M,NA,variable,homogeneous,5,present,0.79737114906311,1,horizontal,horizontal,1,0.952930212020874,green,1,5,795.549636358493,854.96116226488,556.142287229426,674.554784704298,795.549636358493,854.96116226488,1041.10723677783,683.019879386575,953.462830903772,396.34794493794,653.738008730483,391.116228706307,556.142287229426,674.554784704298,0,0,4,0,0,0,0,NaN,horizontal,vertical,vertical,horizontal,horizontal,none
1c,20,100161,3,60,188,20,M,NA,variable,homogeneous,3,present,1.16124105453491,1,vertical,vertical,1,0.988223233222961,red,3,1,576.971974679454,476.373546837184,804.450363641507,854.96116226488,804.450363641507,854.96116226488,1018.57766167904,468.665290897936,576.971974679454,476.373546837184,0,0,0,0,0,0,0,0,4,NaN,NaN,NaN,vertical,horizontal,vertical,none,none,none
1c,20,100161,3,61,189,20,M,NA,variable,homogeneous,3,absent,0.632970094680786,1,horizontal,horizontal,1,0.611764340400696,green,2,NaN,870.287525733335,354.878267535729,NaN,NaN,977.137884467044,783.431649086356,870.287525733335,354.878267535729,552.574589799621,661.690083377915,0,0,0,0,0,0,0,4,0,NaN,NaN,NaN,vertical,horizontal,vertical,none,none,none
1c,20,100161,3,62,190,20,M,NA,variable,homogeneous,3,present,1.03607392311096,1,horizontal,horizontal,1,0.929401531219482,green,1,2,878.799333565612,842.519411655264,970.628304621509,410.498069503264,878.799333565612,842.519411655264,970.628304621509,410.498069503264,550.57236181288,546.982518841471,0,0,0,0,0,0,4,0,0,NaN,NaN,NaN,horizontal,horizontal,vertical,none,none,none
1c,20,100161,3,63,191,20,M,NA,variable,homogeneous,6,present,0.741588115692139,1,vertical,vertical,1,1.02351625442505,green,1,3,822.224714400653,854.029648013395,1008.88377129369,453.738008730483,822.224714400653,854.029648013395,1031.10848569435,707.767656743878,1008.88377129369,453.738008730483,777.775285599347,345.970351986605,568.891514305654,492.232343256122,591.116228706307,746.261991269517,4,0,0,0,0,0,vertical,horizontal,horizontal,vertical,horizontal,horizontal
1c,20,100161,3,64,192,20,M,NA,variable,homogeneous,4,absent,0.909080982208252,1,vertical,vertical,1,1.02351625442505,green,4,NaN,547.481642470899,635.489140744817,NaN,NaN,835.489140744817,852.518357529101,1052.5183575291,564.510859255183,764.510859255183,347.4816424709,547.481642470899,635.489140744817,0,0,0,0,0,0,0,4,NaN,NaN,vertical,horizontal,vertical,vertical,none,none
1c,20,100161,4,1,193,20,M,NA,variable,homogeneous,4,present,0.844738006591797,1,vertical,vertical,1,0.717643404006958,red,1,4,804.450363641507,854.96116226488,545.03883773512,604.450363641507,804.450363641507,854.96116226488,1054.96116226488,595.549636358493,795.549636358493,345.03883773512,545.03883773512,604.450363641507,0,0,0,0,4,0,0,0,NaN,NaN,vertical,horizontal,vertical,horizontal,none,none
1c,20,100161,4,2,194,20,M,NA,variable,homogeneous,6,absent,0.728976011276245,1,horizontal,horizontal,1,0.764700765609741,green,1,NaN,831.076682568313,853.099268668537,NaN,NaN,831.076682568313,853.099268668537,1034.72873763037,699.636437764765,1003.65205506206,446.537169096228,768.923317431687,346.900731331463,565.271262369628,500.363562235235,596.34794493794,753.462830903772,4,0,0,0,0,0,horizontal,vertical,vertical,vertical,horizontal,horizontal
1c,20,100161,4,3,195,20,M,NA,variable,homogeneous,6,absent,0.632587909698486,1,horizontal,horizontal,1,0.835286808013916,green,4,NaN,721.200666434388,357.480588344736,NaN,NaN,878.799333565612,842.519411655264,1049.42763818712,653.017481158529,970.628304621509,410.498069503264,721.200666434388,357.480588344736,550.57236181288,546.982518841471,629.371695378491,789.501930496736,0,0,0,4,0,0,vertical,horizontal,horizontal,horizontal,horizontal,horizontal
1c,20,100161,4,4,196,20,M,NA,variable,homogeneous,4,present,1.00669002532959,1,horizontal,horizontal,1,1.07057361602783,green,2,1,1041.10723677783,516.980120613425,883.019879386575,841.107236777826,883.019879386575,841.107236777826,1041.10723677783,516.980120613425,716.980120613425,358.892763222174,558.892763222174,683.019879386575,0,0,0,0,0,4,0,0,NaN,NaN,vertical,horizontal,vertical,vertical,none,none
1c,20,100161,4,5,197,20,M,NA,variable,homogeneous,6,absent,0.541064023971558,1,vertical,vertical,1,1.09410229682922,green,4,NaN,923.626453162816,376.971974679454,NaN,NaN,676.373546837184,823.028025320546,931.334709102064,818.577661679039,1054.96116226488,595.549636358493,923.626453162816,376.971974679454,668.665290897936,381.422338320961,545.03883773512,604.450363641507,0,0,0,4,0,0,vertical,vertical,horizontal,vertical,vertical,horizontal
1c,20,100161,4,6,198,20,M,NA,variable,homogeneous,6,absent,0.603502035140991,1,vertical,vertical,1,0.976458892822266,red,4,NaN,688.215357568785,370.807518193712,NaN,NaN,911.784642431215,829.192481806288,1054.37883281626,617.787900804752,942.594190385041,388.595418998464,688.215357568785,370.807518193712,545.621167183745,582.212099195248,657.405809614959,811.404581001536,0,0,0,4,0,0,horizontal,horizontal,horizontal,vertical,vertical,horizontal
1c,20,100161,4,7,199,20,M,NA,variable,homogeneous,5,absent,0.677376985549927,1,horizontal,horizontal,1,1.08233795642853,red,5,NaN,545.03883773512,595.549636358493,NaN,NaN,716.980120613425,841.107236777826,1003.65205506206,753.462830903772,1008.88377129369,453.738008730483,725.445215295702,356.142287229426,545.03883773512,595.549636358493,0,0,0,0,0,0,4,NaN,horizontal,horizontal,vertical,vertical,horizontal,none
1c,20,100161,4,8,200,20,M,NA,variable,homogeneous,5,present,0.744719982147217,1,horizontal,horizontal,1,0.682350382804871,green,1,3,931.334709102064,818.577661679039,822.224714400653,345.970351986605,931.334709102064,818.577661679039,1048.46436652023,542.637481142314,822.224714400653,345.970351986605,565.271262369628,500.363562235235,632.704947607421,792.450942956807,0,0,4,0,0,0,0,NaN,horizontal,horizontal,vertical,vertical,vertical,none
1c,20,100161,4,9,201,20,M,NA,variable,homogeneous,6,present,0.636925935745239,1,vertical,vertical,1,1.05880927562714,green,2,3,1013.86099482608,738.882953928832,1027.20666366803,484.232422566416,786.654331158049,854.650531362416,1013.86099482608,738.882953928832,1027.20666366803,484.232422566416,813.345668841951,345.349468637584,586.139005173917,461.117046071168,572.793336331966,715.767577433584,0,4,0,0,0,0,vertical,vertical,vertical,vertical,horizontal,horizontal
1c,20,100161,4,10,202,20,M,NA,variable,homogeneous,4,present,1.01979804039001,1,horizontal,horizontal,1,0.882344169616699,red,4,1,545.621167183745,582.212099195248,782.212099195248,854.378832816255,782.212099195248,854.378832816255,1054.37883281626,617.787900804752,817.787900804752,345.621167183745,545.621167183745,582.212099195248,0,0,0,0,0,0,0,4,NaN,NaN,vertical,horizontal,horizontal,horizontal,none,none
1c,20,100161,4,11,203,20,M,NA,variable,homogeneous,6,absent,0.628604888916016,1,vertical,vertical,1,1.02351625442505,green,3,NaN,1048.46436652023,542.637481142314,NaN,NaN,725.445215295702,843.857712770574,973.909581815937,786.495193912888,1048.46436652023,542.637481142314,874.554784704298,356.142287229426,626.090418184063,413.504806087112,551.535633479765,657.362518857686,0,0,4,0,0,0,horizontal,horizontal,vertical,horizontal,vertical,horizontal
1c,20,100161,4,12,204,20,M,NA,variable,homogeneous,5,present,0.605223178863525,1,vertical,vertical,1,1.01175191402435,red,5,1,568.891514305654,707.767656743878,831.076682568313,853.099268668537,831.076682568313,853.099268668537,1050.31493177915,648.656293821019,923.626453162816,376.971974679454,626.090418184063,413.504806087112,568.891514305654,707.767656743878,0,0,0,0,0,0,4,NaN,vertical,vertical,vertical,vertical,vertical,none
1c,20,100161,4,13,205,20,M,NA,variable,homogeneous,4,absent,0.569339036941528,1,vertical,vertical,1,0.776465106010437,red,4,NaN,545.970351986605,577.775285599347,NaN,NaN,777.775285599347,854.029648013395,1054.0296480134,622.224714400653,822.224714400653,345.970351986605,545.970351986605,577.775285599347,0,0,0,0,0,0,0,4,NaN,NaN,horizontal,vertical,vertical,vertical,none,none
1c,20,100161,4,14,206,20,M,NA,variable,homogeneous,5,present,0.515758991241455,1,horizontal,horizontal,1,0.941165871620178,red,5,1,545.621167183745,617.787900804752,738.309916622085,847.425410200379,738.309916622085,847.425410200379,1016.25226451989,735.129412379467,995.341332995339,436.089159529932,704.475318678942,363.568117085469,545.621167183745,617.787900804752,0,0,0,0,0,0,4,NaN,horizontal,vertical,vertical,horizontal,horizontal,none
1c,20,100161,4,15,207,20,M,NA,variable,homogeneous,5,absent,0.541136980056763,1,horizontal,horizontal,1,0.752936425209045,green,5,NaN,545.155339110131,608.899371659138,NaN,NaN,729.712474266665,845.121732464271,1011.40458100154,742.594190385041,1000.94274216971,443.006323791957,712.784863451954,360.378381699593,545.155339110131,608.899371659138,0,0,0,0,0,0,4,NaN,horizontal,horizontal,horizontal,vertical,horizontal,none
1c,20,100161,4,16,208,20,M,NA,variable,homogeneous,6,absent,0.75434398651123,1,horizontal,horizontal,1,0.905872850418091,red,2,NaN,1054.65053136242,613.345668841951,NaN,NaN,915.767577433584,827.206663668034,1054.65053136242,613.345668841951,938.882953928832,386.139005173917,684.232422566416,372.793336331966,545.349468637584,586.654331158049,661.117046071168,813.860994826083,0,4,0,0,0,0,horizontal,horizontal,horizontal,vertical,vertical,horizontal
1c,20,100161,4,17,209,20,M,NA,variable,homogeneous,6,present,0.727604150772095,1,horizontal,horizontal,1,1.09410229682922,red,6,4,579.163522034968,727.5,800,345,800,855,1020.83647796503,727.5,1020.83647796503,472.5,800,345,579.163522034968,472.5,579.163522034968,727.5,0,0,0,0,0,4,vertical,horizontal,vertical,horizontal,vertical,horizontal
1c,20,100161,4,18,210,20,M,NA,variable,homogeneous,5,present,0.697492122650146,1,horizontal,horizontal,1,0.96469455242157,green,5,4,586.139005173917,738.882953928832,601.827779828472,439.523300282291,865.998856501143,846.311085703712,1054.65053136242,613.345668841951,891.383827134052,361.936991243214,601.827779828472,439.523300282291,586.139005173917,738.882953928832,0,0,0,0,0,0,4,NaN,vertical,vertical,vertical,vertical,horizontal,none
1c,20,100161,4,19,211,20,M,NA,variable,homogeneous,5,absent,0.578001976013184,1,horizontal,horizontal,1,0.717643404006958,red,1,NaN,813.345668841951,854.650531362416,NaN,NaN,813.345668841951,854.650531362416,1046.31108570371,665.998856501143,938.882953928832,386.139005173917,639.523300282292,401.827779828472,561.936991243214,691.383827134052,0,0,4,0,0,0,0,NaN,horizontal,horizontal,vertical,vertical,horizontal,none
1c,20,100161,4,20,212,20,M,NA,variable,homogeneous,3,present,0.772675037384033,1,horizontal,horizontal,1,0.752936425209045,green,2,3,1042.51941165526,521.200666434388,610.498069503264,429.371695378491,746.982518841471,849.42763818712,1042.51941165526,521.200666434388,610.498069503264,429.371695378491,0,0,0,0,0,0,0,4,0,NaN,NaN,NaN,horizontal,horizontal,vertical,none,none,none
1c,20,100161,4,21,213,20,M,NA,variable,homogeneous,4,present,1.13804888725281,1,horizontal,horizontal,1,1.08233795642853,red,1,2,844.280285305067,851.125977018113,1051.12597701811,555.719714694933,844.280285305067,851.125977018113,1051.12597701811,555.719714694933,755.719714694933,348.874022981887,548.874022981887,644.280285305067,0,0,0,0,4,0,0,0,NaN,NaN,horizontal,horizontal,vertical,horizontal,none,none
1c,20,100161,4,22,214,20,M,NA,variable,homogeneous,4,absent,0.570591926574707,1,horizontal,horizontal,1,1.08233795642853,red,2,NaN,992.450942956807,767.295052392579,NaN,NaN,632.704947607421,792.450942956807,992.450942956807,767.295052392579,967.295052392579,407.549057043193,607.549057043193,432.704947607421,0,0,0,0,0,4,0,0,NaN,NaN,horizontal,horizontal,horizontal,vertical,none,none
1c,20,100161,4,23,215,20,M,NA,variable,homogeneous,6,present,0.838805913925171,1,horizontal,horizontal,1,0.835286808013916,red,3,5,1023.02802532055,476.373546837184,581.422338320961,468.665290897936,795.549636358493,854.96116226488,1018.57766167904,731.334709102064,1023.02802532055,476.373546837184,804.450363641507,345.03883773512,581.422338320961,468.665290897936,576.971974679454,723.626453162816,0,0,4,0,0,0,vertical,horizontal,horizontal,vertical,horizontal,horizontal
1c,20,100161,4,24,216,20,M,NA,variable,homogeneous,6,present,0.583806991577148,1,horizontal,horizontal,1,0.6,green,5,2,591.116228706307,453.738008730483,1008.88377129369,746.261991269517,777.775285599347,854.029648013395,1008.88377129369,746.261991269517,1031.10848569435,492.232343256122,822.224714400653,345.970351986605,591.116228706307,453.738008730483,568.891514305654,707.767656743878,0,0,0,0,4,0,horizontal,vertical,horizontal,horizontal,horizontal,vertical
1c,20,100161,4,25,217,20,M,NA,variable,homogeneous,3,absent,0.82427716255188,1,horizontal,horizontal,1,1.03528059482574,red,1,NaN,887.215136548046,839.621618300407,NaN,NaN,887.215136548046,839.621618300407,963.910840470068,404.658667004661,548.874022981887,555.719714694933,0,0,0,0,0,0,4,0,0,NaN,NaN,NaN,horizontal,vertical,horizontal,none,none,none
1c,20,100161,4,26,218,20,M,NA,variable,homogeneous,4,absent,0.671012878417969,1,vertical,vertical,1,0.694114723205566,red,2,NaN,992.450942956807,767.295052392579,NaN,NaN,632.704947607421,792.450942956807,992.450942956807,767.295052392579,967.295052392579,407.549057043193,607.549057043193,432.704947607421,0,0,0,0,0,4,0,0,NaN,NaN,horizontal,vertical,vertical,horizontal,none,none
1c,20,100161,4,27,219,20,M,NA,variable,homogeneous,4,present,0.565937042236328,1,horizontal,horizontal,1,1.07057361602783,green,2,1,1052.5183575291,564.510859255183,835.489140744817,852.518357529101,835.489140744817,852.518357529101,1052.5183575291,564.510859255183,764.510859255183,347.4816424709,547.481642470899,635.489140744817,0,0,0,0,0,4,0,0,NaN,NaN,vertical,horizontal,vertical,vertical,none,none
1c,20,100161,4,28,220,20,M,NA,variable,homogeneous,3,present,0.544416904449463,1,horizontal,horizontal,1,0.941165871620178,red,2,3,1046.31108570371,665.998856501143,734.001143498857,353.688914296288,619.68777079743,780.31222920257,1046.31108570371,665.998856501143,734.001143498857,353.688914296288,0,0,0,0,0,0,0,4,0,NaN,NaN,NaN,vertical,horizontal,vertical,none,none,none
1c,20,100161,4,29,221,20,M,NA,variable,homogeneous,5,present,0.706713199615479,1,vertical,vertical,1,0.96469455242157,red,2,5,1046.31108570371,665.998856501143,561.936991243214,691.383827134052,813.345668841951,854.650531362416,1046.31108570371,665.998856501143,938.882953928832,386.139005173917,639.523300282292,401.827779828472,561.936991243214,691.383827134052,0,0,0,4,0,0,0,NaN,horizontal,vertical,horizontal,vertical,vertical,none
1c,20,100161,4,30,222,20,M,NA,variable,homogeneous,3,present,0.481166124343872,1,vertical,vertical,1,1.01175191402435,green,2,3,1048.46436652023,657.362518857686,725.445215295702,356.142287229426,626.090418184063,786.495193912888,1048.46436652023,657.362518857686,725.445215295702,356.142287229426,0,0,0,0,0,0,0,4,0,NaN,NaN,NaN,vertical,vertical,horizontal,none,none,none
1c,20,100161,4,31,223,20,M,NA,variable,homogeneous,6,present,0.935950994491577,1,vertical,vertical,1,0.635293021202087,red,6,3,557.480588344736,678.799333565612,1042.51941165526,521.200666434388,746.982518841471,849.42763818712,989.501930496736,770.628304621509,1042.51941165526,521.200666434388,853.017481158529,350.57236181288,610.498069503264,429.371695378491,557.480588344736,678.799333565612,0,0,0,0,0,4,horizontal,vertical,horizontal,vertical,vertical,vertical
1c,20,100161,4,32,224,20,M,NA,variable,homogeneous,6,present,0.576493978500366,1,horizontal,horizontal,1,0.682350382804871,green,6,3,545.03883773512,604.450363641507,1054.96116226488,595.549636358493,676.373546837184,823.028025320546,931.334709102064,818.577661679039,1054.96116226488,595.549636358493,923.626453162816,376.971974679454,668.665290897936,381.422338320961,545.03883773512,604.450363641507,0,0,0,0,0,4,horizontal,horizontal,vertical,vertical,vertical,horizontal
1c,20,100161,4,33,225,20,M,NA,variable,homogeneous,4,present,0.934154987335205,1,vertical,vertical,1,0.894108510017395,red,2,1,1051.12597701811,644.280285305067,755.719714694933,851.125977018113,755.719714694933,851.125977018113,1051.12597701811,644.280285305067,844.280285305067,348.874022981887,548.874022981887,555.719714694933,0,0,0,0,0,4,0,0,NaN,NaN,vertical,vertical,horizontal,vertical,none,none
1c,20,100161,4,34,226,20,M,NA,variable,homogeneous,3,present,0.563853025436401,1,vertical,vertical,1,0.941165871620178,red,3,1,549.685068220846,551.343706178981,883.019879386575,841.107236777826,883.019879386575,841.107236777826,967.295052392579,407.549057043193,549.685068220846,551.343706178981,0,0,0,0,0,0,0,0,4,NaN,NaN,NaN,vertical,horizontal,vertical,none,none,none
1c,20,100161,4,35,227,20,M,NA,variable,homogeneous,4,absent,0.5903639793396,1,horizontal,horizontal,1,0.941165871620178,green,4,NaN,560.378381699593,687.215136548046,NaN,NaN,887.215136548046,839.621618300407,1039.62161830041,512.784863451954,712.784863451954,360.378381699593,560.378381699593,687.215136548046,0,0,0,0,0,0,0,4,NaN,NaN,vertical,vertical,vertical,horizontal,none,none
1c,20,100161,4,36,228,20,M,NA,variable,homogeneous,3,absent,0.824097156524658,1,vertical,vertical,1,0.694114723205566,red,1,NaN,953.462830903772,803.65205506206,NaN,NaN,953.462830903772,803.65205506206,899.636437764765,365.271262369628,546.900731331463,631.076682568313,0,0,0,0,0,0,4,0,0,NaN,NaN,NaN,vertical,horizontal,horizontal,none,none,none
1c,20,100161,4,37,229,20,M,NA,variable,homogeneous,5,absent,0.678745031356812,1,vertical,vertical,1,1.09410229682922,green,3,NaN,899.636437764765,365.271262369628,NaN,NaN,857.362518857686,848.464366520235,1054.0296480134,622.224714400653,899.636437764765,365.271262369628,607.549057043193,432.704947607421,581.422338320961,731.334709102064,0,0,0,0,4,0,0,NaN,horizontal,vertical,vertical,horizontal,vertical,none
1c,20,100161,4,38,230,20,M,NA,variable,homogeneous,6,present,0.724447965621948,1,vertical,vertical,1,0.799993786811829,green,6,1,613.504806087112,773.909581815937,857.362518857686,848.464366520235,857.362518857686,848.464366520235,1043.85771277057,674.554784704298,986.495193912888,426.090418184063,742.637481142314,351.535633479765,556.142287229426,525.445215295702,613.504806087112,773.909581815937,0,0,0,0,0,4,vertical,vertical,horizontal,horizontal,horizontal,vertical
1c,20,100161,4,39,231,20,M,NA,variable,homogeneous,5,absent,0.740532159805298,1,horizontal,horizontal,1,0.870579829216003,green,2,NaN,1016.25226451989,735.129412379467,NaN,NaN,738.309916622085,847.425410200379,1016.25226451989,735.129412379467,995.341332995339,436.089159529932,704.475318678942,363.568117085469,545.621167183745,617.787900804752,0,0,0,4,0,0,0,NaN,vertical,horizontal,vertical,vertical,vertical,none
1c,20,100161,4,40,232,20,M,NA,variable,homogeneous,3,present,0.573430061340332,1,horizontal,horizontal,1,0.694114723205566,red,2,3,1054.65053136242,613.345668841951,684.232422566416,372.793336331966,661.117046071168,813.860994826083,1054.65053136242,613.345668841951,684.232422566416,372.793336331966,0,0,0,0,0,0,0,4,0,NaN,NaN,NaN,horizontal,horizontal,vertical,none,none,none
1c,20,100161,4,41,233,20,M,NA,variable,homogeneous,4,absent,0.64075493812561,1,vertical,vertical,1,0.788229446411133,green,3,NaN,676.373546837184,376.971974679454,NaN,NaN,923.626453162816,823.028025320546,1023.02802532055,476.373546837184,676.373546837184,376.971974679454,576.971974679454,723.626453162816,0,0,0,0,0,0,4,0,NaN,NaN,horizontal,vertical,vertical,horizontal,none,none
1c,20,100161,4,42,234,20,M,NA,variable,homogeneous,5,absent,0.598710060119629,1,vertical,vertical,1,0.858815488815308,red,3,NaN,980.31222920257,419.68777079743,NaN,NaN,760.109211414741,851.86052685176,1027.20666366803,715.767577433584,980.31222920257,419.68777079743,684.232422566416,372.793336331966,548.13947314824,639.890788585259,0,0,0,0,4,0,0,NaN,horizontal,horizontal,vertical,vertical,vertical,none
1c,20,100161,4,43,235,20,M,NA,variable,homogeneous,3,absent,0.629086971282959,1,horizontal,horizontal,1,1.09410229682922,green,2,NaN,1046.31108570371,665.998856501143,NaN,NaN,619.68777079743,780.31222920257,1046.31108570371,665.998856501143,734.001143498857,353.688914296288,0,0,0,0,0,0,0,4,0,NaN,NaN,NaN,horizontal,horizontal,horizontal,none,none,none
1c,20,100161,4,44,236,20,M,NA,variable,homogeneous,3,present,0.830461978912354,1,vertical,vertical,1,1.03528059482574,green,3,1,545.970351986605,622.224714400653,946.261991269517,808.883771293693,946.261991269517,808.883771293693,907.767656743878,368.891514305654,545.970351986605,622.224714400653,0,0,0,0,0,0,0,0,4,NaN,NaN,NaN,vertical,vertical,vertical,none,none,none
1c,20,100161,4,45,237,20,M,NA,variable,homogeneous,3,absent,0.543931007385254,1,horizontal,horizontal,1,1.03528059482574,red,3,NaN,773.345241866748,346.39691668109,NaN,NaN,593.700666434388,749.885239334581,1032.95409169886,703.717843984329,773.345241866748,346.39691668109,0,0,0,0,0,0,0,0,4,NaN,NaN,NaN,vertical,vertical,horizontal,none,none,none
1c,20,100161,4,46,238,20,M,NA,variable,homogeneous,5,absent,0.751399040222168,1,vertical,vertical,1,0.623528680801392,red,1,NaN,672.5,820.836477965032,NaN,NaN,672.5,820.836477965032,970.628304621509,789.501930496736,1032.95409169886,496.282156015671,773.345241866748,346.39691668109,550.57236181288,546.982518841471,0,0,4,0,0,0,0,NaN,vertical,horizontal,vertical,horizontal,vertical,none
1c,20,100161,4,47,239,20,M,NA,variable,homogeneous,3,absent,0.54957389831543,1,vertical,vertical,1,0.952930212020874,green,3,NaN,554.878267535729,529.712474266665,NaN,NaN,861.690083377915,847.425410200379,983.431649086356,422.862115532956,554.878267535729,529.712474266665,0,0,0,0,0,0,0,0,4,NaN,NaN,NaN,horizontal,vertical,vertical,none,none,none
1c,20,100161,4,48,240,20,M,NA,variable,homogeneous,3,present,0.726099014282227,1,vertical,vertical,1,1.07057361602783,red,1,2,688.215357568785,829.192481806288,1054.37883281626,582.212099195248,688.215357568785,829.192481806288,1054.37883281626,582.212099195248,657.405809614959,388.595418998464,0,0,0,0,0,0,4,0,0,NaN,NaN,NaN,vertical,horizontal,vertical,none,none,none
1c,20,100161,4,49,241,20,M,NA,variable,homogeneous,4,absent,0.589694023132324,1,vertical,vertical,1,1.04704493522644,green,4,NaN,547.481642470899,635.489140744817,NaN,NaN,835.489140744817,852.518357529101,1052.5183575291,564.510859255183,764.510859255183,347.4816424709,547.481642470899,635.489140744817,0,0,0,0,0,0,0,4,NaN,NaN,vertical,vertical,vertical,vertical,none,none
1c,20,100161,4,50,242,20,M,NA,variable,homogeneous,5,present,0.602431058883667,1,vertical,vertical,1,1.03528059482574,green,5,4,565.271262369628,699.636437764765,632.704947607421,407.549057043193,822.224714400653,854.029648013395,1048.46436652023,657.362518857686,931.334709102064,381.422338320961,632.704947607421,407.549057043193,565.271262369628,699.636437764765,0,0,0,0,0,0,4,NaN,horizontal,vertical,horizontal,horizontal,vertical,none
1c,20,100161,4,51,243,20,M,NA,variable,homogeneous,3,absent,0.590190172195435,1,horizontal,horizontal,1,0.976458892822266,green,2,NaN,942.594190385041,388.595418998464,NaN,NaN,911.784642431215,829.192481806288,942.594190385041,388.595418998464,545.621167183745,582.212099195248,0,0,0,0,0,0,0,4,0,NaN,NaN,NaN,vertical,horizontal,vertical,none,none,none
1c,20,100161,4,52,244,20,M,NA,variable,homogeneous,3,absent,0.492631912231445,1,vertical,vertical,1,0.729407744407654,green,3,NaN,791.100628340862,345.155339110131,NaN,NaN,583.747735480111,735.129412379467,1025.15163617903,719.715248510402,791.100628340862,345.155339110131,0,0,0,0,0,0,0,0,4,NaN,NaN,NaN,vertical,vertical,vertical,none,none,none
