experiment,subject,uniqueID,block,trial,trial_cumulative,age,gender,color_cond_blocking,color_history,shape_type,set_size,distractor,rt,acc,target_orient,response_key,response_made,iti,target_color,target_item,distractor_item,target_X,target_Y,distractor_X,distractor_Y,item1_X,item1_Y,item2_X,item2_Y,item3_X,item3_Y,item4_X,item4_Y,item5_X,item5_Y,item6_X,item6_Y,item1_shape,item2_shape,item3_shape,item4_shape,item5_shape,item6_shape,item1_line,item2_line,item3_line,item4_line,item5_line,item6_line
1c,21,100160,1,1,1,20,F,NA,variable,homogeneous,4,present,1.03812003135681,1,horizontal,horizontal,1,0.729409265518189,green,3,1,800,345,800,855,800,855,1055,600,800,345,545,600,0,0,0,0,0,0,4,0,NaN,NaN,horizontal,horizontal,horizontal,vertical,none,none
1c,21,100160,1,2,2,20,F,NA,variable,homogeneous,6,absent,1.03647804260254,1,horizontal,horizontal,1,1.08234362602234,red,1,NaN,831.076682568313,853.099268668537,NaN,NaN,831.076682568313,853.099268668537,1034.72873763037,699.636437764765,1003.65205506206,446.537169096228,768.923317431687,346.900731331463,565.271262369628,500.363562235235,596.34794493794,753.462830903772,4,0,0,0,0,0,horizontal,horizontal,vertical,horizontal,horizontal,horizontal
1c,21,100160,1,3,3,20,F,NA,variable,homogeneous,5,absent,0.690978050231934,1,vertical,vertical,1,1.0588146686554,red,5,NaN,586.139005173917,738.882953928832,NaN,NaN,865.998856501143,846.311085703712,1054.65053136242,613.345668841951,891.383827134052,361.936991243214,601.827779828472,439.523300282291,586.139005173917,738.882953928832,0,0,0,0,0,0,4,NaN,vertical,horizontal,horizontal,horizontal,vertical,none
1c,21,100160,1,4,4,20,F,NA,variable,homogeneous,3,present,0.739595890045166,1,vertical,vertical,1,0.95293436050415,green,1,3,853.017481158529,849.42763818712,557.480588344736,521.200666434388,853.017481158529,849.42763818712,989.501930496736,429.371695378491,557.480588344736,521.200666434388,0,0,0,0,0,0,4,0,0,NaN,NaN,NaN,vertical,horizontal,horizontal,none,none,none
1c,21,100160,1,5,5,20,F,NA,variable,homogeneous,5,present,1.06993317604065,1,horizontal,horizontal,1,0.976463317871094,green,2,3,1046.31108570371,534.001143498857,813.345668841951,345.349468637584,938.882953928832,813.860994826083,1046.31108570371,534.001143498857,813.345668841951,345.349468637584,561.936991243214,508.616172865948,639.523300282292,798.172220171528,0,0,0,4,0,0,0,NaN,horizontal,horizontal,vertical,horizontal,vertical,none
1c,21,100160,1,6,6,20,F,NA,variable,homogeneous,5,absent,0.68781590461731,1,vertical,vertical,1,1.01175675392151,green,4,NaN,653.738008730483,391.116228706307,NaN,NaN,795.549636358493,854.96116226488,1041.10723677783,683.019879386575,953.462830903772,396.34794493794,653.738008730483,391.116228706307,556.142287229426,674.554784704298,0,0,0,0,0,4,0,NaN,vertical,vertical,horizontal,vertical,horizontal,none
1c,21,100160,1,7,7,20,F,NA,variable,homogeneous,4,absent,0.913202047348022,1,horizontal,horizontal,1,0.776467180252075,red,4,NaN,554.878267535729,529.712474266665,NaN,NaN,729.712474266665,845.121732464271,1045.12173246427,670.287525733335,870.287525733335,354.878267535729,554.878267535729,529.712474266665,0,0,0,0,0,0,0,4,NaN,NaN,horizontal,horizontal,vertical,horizontal,none,none
1c,21,100160,1,8,8,20,F,NA,variable,homogeneous,3,absent,0.948338985443115,1,vertical,vertical,1,0.823525094985962,red,1,NaN,942.594190385041,811.404581001536,NaN,NaN,942.594190385041,811.404581001536,911.784642431215,370.807518193712,545.621167183745,617.787900804752,0,0,0,0,0,0,4,0,0,NaN,NaN,NaN,vertical,vertical,vertical,none,none,none
1c,21,100160,1,9,9,20,F,NA,variable,homogeneous,3,present,0.64329195022583,0,vertical,horizontal,1,0.999992275238037,red,2,3,1054.84466088987,608.899371659138,680.284751489598,374.848363820974,664.870587620533,816.252264519889,1054.84466088987,608.899371659138,680.284751489598,374.848363820974,0,0,0,0,0,0,0,4,0,NaN,NaN,NaN,vertical,vertical,horizontal,none,none,none
1c,21,100160,1,10,10,20,F,NA,variable,homogeneous,6,absent,0.713910818099976,1,vertical,vertical,1,0.88234748840332,green,4,NaN,826.654758133252,346.39691668109,NaN,NaN,773.345241866748,853.60308331891,1006.29933356561,749.885239334581,1032.95409169886,496.282156015671,826.654758133252,346.39691668109,593.700666434388,450.114760665419,567.045908301137,703.717843984329,0,0,0,4,0,0,vertical,horizontal,vertical,vertical,vertical,horizontal
1c,21,100160,1,11,11,20,F,NA,variable,homogeneous,6,present,1.35969400405884,1,horizontal,horizontal,1,0.764702701568604,red,3,4,1045.12173246427,529.712474266665,861.690083377915,352.574589799621,738.309916622085,847.425410200379,983.431649086356,777.137884467044,1045.12173246427,529.712474266665,861.690083377915,352.574589799621,616.568350913644,422.862115532956,554.878267535729,670.287525733335,0,0,4,0,0,0,horizontal,vertical,horizontal,horizontal,vertical,vertical
1c,21,100160,1,12,12,20,F,NA,variable,homogeneous,5,present,0.828613996505737,1,vertical,vertical,1,1.07057914733887,green,2,4,1000.94274216971,756.993676208043,729.712474266665,354.878267535729,712.784863451954,839.621618300407,1000.94274216971,756.993676208043,1011.40458100154,457.40580961496,729.712474266665,354.878267535729,545.155339110131,591.100628340862,0,0,0,4,0,0,0,NaN,horizontal,vertical,horizontal,vertical,vertical,none
1c,21,100160,1,13,13,20,F,NA,variable,homogeneous,3,absent,1.3302309513092,1,horizontal,horizontal,1,0.647057914733887,red,1,NaN,822.224714400653,854.029648013395,NaN,NaN,822.224714400653,854.029648013395,1008.88377129369,453.738008730483,568.891514305654,492.232343256122,0,0,0,0,0,0,4,0,0,NaN,NaN,NaN,horizontal,horizontal,vertical,none,none,none
1c,21,100160,1,14,14,20,F,NA,variable,homogeneous,3,absent,0.8214430809021,1,vertical,vertical,1,0.623528957366943,green,2,NaN,1023.02802532055,476.373546837184,NaN,NaN,795.549636358493,854.96116226488,1023.02802532055,476.373546837184,581.422338320961,468.665290897936,0,0,0,0,0,0,0,4,0,NaN,NaN,NaN,horizontal,vertical,horizontal,none,none,none
1c,21,100160,1,15,15,20,F,NA,variable,homogeneous,6,present,1.55156898498535,1,horizontal,horizontal,1,1.07057914733887,red,4,1,844.280285305067,348.874022981887,755.719714694933,851.125977018113,755.719714694933,851.125977018113,995.341332995339,763.910840470068,1039.62161830041,512.784863451954,844.280285305067,348.874022981887,604.658667004661,436.089159529932,560.378381699593,687.215136548046,0,0,0,4,0,0,vertical,vertical,horizontal,horizontal,vertical,vertical
1c,21,100160,1,16,16,20,F,NA,variable,homogeneous,4,present,1.09959578514099,1,vertical,vertical,1,0.647057914733887,red,3,2,622.862115532956,416.568350913644,983.431649086356,422.862115532956,977.137884467044,783.431649086356,983.431649086356,422.862115532956,622.862115532956,416.568350913644,616.568350913644,777.137884467044,0,0,0,0,0,0,4,0,NaN,NaN,vertical,vertical,vertical,horizontal,none,none
1c,21,100160,1,17,17,20,F,NA,variable,homogeneous,6,present,0.723726987838745,1,vertical,vertical,1,1.09410810470581,red,3,2,1034.72873763037,500.363562235235,1003.65205506206,753.462830903772,768.923317431687,853.099268668537,1003.65205506206,753.462830903772,1034.72873763037,500.363562235235,831.076682568313,346.900731331463,596.34794493794,446.537169096228,565.271262369628,699.636437764765,0,0,4,0,0,0,horizontal,vertical,vertical,horizontal,vertical,horizontal
1c,21,100160,1,18,18,20,F,NA,variable,homogeneous,5,present,0.6720290184021,1,horizontal,horizontal,1,0.682351350784302,red,2,3,1045.12173246427,529.712474266665,808.899371659138,345.155339110131,942.594190385041,811.404581001536,1045.12173246427,529.712474266665,808.899371659138,345.155339110131,560.378381699593,512.784863451954,643.006323791957,800.942742169714,0,0,0,4,0,0,0,NaN,vertical,horizontal,horizontal,horizontal,vertical,none
1c,21,100160,1,19,19,20,F,NA,variable,homogeneous,4,absent,0.605666160583496,0,horizontal,vertical,1,0.999992275238037,red,3,NaN,636.089159529932,404.658667004661,NaN,NaN,963.910840470068,795.341332995339,995.341332995339,436.089159529932,636.089159529932,404.658667004661,604.658667004661,763.910840470068,0,0,0,0,0,0,4,0,NaN,NaN,vertical,vertical,horizontal,horizontal,none,none
1c,21,100160,1,20,20,20,F,NA,variable,homogeneous,3,absent,1.19114184379578,1,horizontal,horizontal,1,0.658822393417358,green,2,NaN,1054.96116226488,604.450363641507,NaN,NaN,668.665290897936,818.577661679039,1054.96116226488,604.450363641507,676.373546837184,376.971974679454,0,0,0,0,0,0,0,4,0,NaN,NaN,NaN,horizontal,horizontal,horizontal,none,none,none
1c,21,100160,1,21,21,20,F,NA,variable,homogeneous,6,absent,0.615658044815063,1,horizontal,horizontal,1,0.623528957366943,green,4,NaN,800,345,NaN,NaN,800,855,1020.83647796503,727.5,1020.83647796503,472.5,800,345,579.163522034968,472.5,579.163522034968,727.5,0,0,0,4,0,0,vertical,vertical,vertical,horizontal,vertical,vertical
1c,21,100160,1,22,22,20,F,NA,variable,homogeneous,6,absent,1.09382104873657,1,vertical,vertical,1,0.88234748840332,green,1,NaN,768.923317431687,853.099268668537,NaN,NaN,768.923317431687,853.099268668537,1003.65205506206,753.462830903772,1034.72873763037,500.363562235235,831.076682568313,346.900731331463,596.34794493794,446.537169096228,565.271262369628,699.636437764765,4,0,0,0,0,0,vertical,horizontal,horizontal,horizontal,vertical,horizontal
1c,21,100160,1,23,23,20,F,NA,variable,homogeneous,4,absent,0.985599994659424,1,vertical,vertical,1,1.08234362602234,green,2,NaN,1051.12597701811,644.280285305067,NaN,NaN,755.719714694933,851.125977018113,1051.12597701811,644.280285305067,844.280285305067,348.874022981887,548.874022981887,555.719714694933,0,0,0,0,0,4,0,0,NaN,NaN,vertical,vertical,vertical,horizontal,none,none
1c,21,100160,1,24,24,20,F,NA,variable,homogeneous,6,present,0.807739019393921,1,horizontal,horizontal,1,0.917640924453735,green,3,5,1031.10848569435,492.232343256122,591.116228706307,453.738008730483,777.775285599347,854.029648013395,1008.88377129369,746.261991269517,1031.10848569435,492.232343256122,822.224714400653,345.970351986605,591.116228706307,453.738008730483,568.891514305654,707.767656743878,0,0,4,0,0,0,vertical,vertical,horizontal,horizontal,vertical,vertical
1c,21,100160,1,25,25,20,F,NA,variable,homogeneous,4,present,1.26382493972778,1,vertical,vertical,1,0.988227796554565,red,2,3,1054.0296480134,622.224714400653,822.224714400653,345.970351986605,777.775285599347,854.029648013395,1054.0296480134,622.224714400653,822.224714400653,345.970351986605,545.970351986605,577.775285599347,0,0,0,0,0,4,0,0,NaN,NaN,vertical,vertical,horizontal,vertical,none,none
1c,21,100160,1,26,26,20,F,NA,variable,homogeneous,3,present,0.732496976852417,1,horizontal,horizontal,1,0.764702701568604,red,1,3,839.890788585259,851.86052685176,561.936991243214,508.616172865948,839.890788585259,851.86052685176,998.172220171528,439.523300282291,561.936991243214,508.616172865948,0,0,0,0,0,0,4,0,0,NaN,NaN,NaN,horizontal,vertical,vertical,none,none,none
1c,21,100160,1,27,27,20,F,NA,variable,homogeneous,5,present,0.68927788734436,1,horizontal,horizontal,1,1.09410810470581,red,3,4,1000.94274216971,443.006323791957,712.784863451954,360.378381699593,729.712474266665,845.121732464271,1011.40458100154,742.594190385041,1000.94274216971,443.006323791957,712.784863451954,360.378381699593,545.155339110131,608.899371659138,0,0,0,0,4,0,0,NaN,vertical,horizontal,horizontal,horizontal,horizontal,none
1c,21,100160,1,28,28,20,F,NA,variable,homogeneous,4,present,0.689666986465454,1,vertical,vertical,1,0.729409265518189,green,1,4,938.882953928832,813.860994826083,586.139005173917,738.882953928832,938.882953928832,813.860994826083,1013.86099482608,461.117046071168,661.117046071168,386.139005173917,586.139005173917,738.882953928832,0,0,0,0,4,0,0,0,NaN,NaN,vertical,vertical,vertical,vertical,none,none
1c,21,100160,1,29,29,20,F,NA,variable,homogeneous,5,absent,0.653780937194824,1,horizontal,horizontal,1,0.894111967086792,red,3,NaN,835.489140744817,347.4816424709,NaN,NaN,919.715248510402,825.151636179026,1051.12597701811,555.719714694933,835.489140744817,347.4816424709,570.807518193712,488.215357568785,622.862115532956,783.431649086356,0,0,0,0,4,0,0,NaN,horizontal,horizontal,horizontal,vertical,vertical,none
1c,21,100160,1,30,30,20,F,NA,variable,homogeneous,4,absent,0.958632946014404,1,vertical,vertical,1,0.988227796554565,red,3,NaN,804.450363641507,345.03883773512,NaN,NaN,795.549636358493,854.96116226488,1054.96116226488,604.450363641507,804.450363641507,345.03883773512,545.03883773512,595.549636358493,0,0,0,0,0,0,4,0,NaN,NaN,horizontal,horizontal,vertical,horizontal,none,none
1c,21,100160,1,31,31,20,F,NA,variable,homogeneous,5,absent,0.771894931793213,1,horizontal,horizontal,1,1.09410810470581,green,1,NaN,729.712474266665,845.121732464271,NaN,NaN,729.712474266665,845.121732464271,1011.40458100154,742.594190385041,1000.94274216971,443.006323791957,712.784863451954,360.378381699593,545.155339110131,608.899371659138,0,0,4,0,0,0,0,NaN,horizontal,horizontal,horizontal,vertical,horizontal,none
1c,21,100160,1,32,32,20,F,NA,variable,homogeneous,3,present,0.803843021392822,1,horizontal,horizontal,1,0.823525094985962,green,2,1,1045.12173246427,529.712474266665,738.309916622085,847.425410200379,738.309916622085,847.425410200379,1045.12173246427,529.712474266665,616.568350913644,422.862115532956,0,0,0,0,0,0,0,4,0,NaN,NaN,NaN,horizontal,horizontal,vertical,none,none,none
1c,21,100160,1,33,33,20,F,NA,variable,homogeneous,4,present,1.05793285369873,1,horizontal,horizontal,1,1.09410810470581,red,4,3,548.13947314824,639.890788585259,760.109211414741,348.13947314824,839.890788585259,851.86052685176,1051.86052685176,560.109211414741,760.109211414741,348.13947314824,548.13947314824,639.890788585259,0,0,0,0,0,0,0,4,NaN,NaN,horizontal,vertical,vertical,horizontal,none,none
1c,21,100160,1,34,34,20,F,NA,variable,homogeneous,3,present,0.684007883071899,1,horizontal,horizontal,1,0.823525094985962,green,2,3,1027.20666366803,484.232422566416,586.139005173917,461.117046071168,786.654331158049,854.650531362416,1027.20666366803,484.232422566416,586.139005173917,461.117046071168,0,0,0,0,0,0,0,4,0,NaN,NaN,NaN,horizontal,horizontal,vertical,none,none,none
1c,21,100160,1,35,35,20,F,NA,variable,homogeneous,6,absent,0.68215799331665,1,vertical,vertical,1,0.81176061630249,red,2,NaN,1042.51941165526,678.799333565612,NaN,NaN,853.017481158529,849.42763818712,1042.51941165526,678.799333565612,989.501930496736,429.371695378491,746.982518841471,350.57236181288,557.480588344736,521.200666434388,610.498069503264,770.628304621509,0,4,0,0,0,0,vertical,vertical,vertical,horizontal,horizontal,horizontal
1c,21,100160,1,36,36,20,F,NA,variable,homogeneous,4,absent,0.910429000854492,1,horizontal,horizontal,1,0.917640924453735,green,1,NaN,822.224714400653,854.029648013395,NaN,NaN,822.224714400653,854.029648013395,1054.0296480134,577.775285599347,777.775285599347,345.970351986605,545.970351986605,622.224714400653,0,0,0,0,4,0,0,0,NaN,NaN,horizontal,horizontal,vertical,horizontal,none,none
1c,21,100160,1,37,37,20,F,NA,variable,homogeneous,3,absent,0.650447845458984,1,vertical,vertical,1,1.07057914733887,red,3,NaN,547.481642470899,564.510859255183,NaN,NaN,895.524681321058,836.431882914531,956.993676208043,399.057257830286,547.481642470899,564.510859255183,0,0,0,0,0,0,0,0,4,NaN,NaN,NaN,horizontal,horizontal,vertical,none,none,none
1c,21,100160,1,38,38,20,F,NA,variable,homogeneous,6,absent,1.02101182937622,1,horizontal,horizontal,1,0.682351350784302,red,6,NaN,626.090418184063,786.495193912888,NaN,NaN,874.554784704298,843.857712770574,1048.46436652023,657.362518857686,973.909581815937,413.504806087112,725.445215295702,356.142287229426,551.535633479765,542.637481142314,626.090418184063,786.495193912888,0,0,0,0,0,4,horizontal,horizontal,vertical,horizontal,vertical,horizontal
1c,21,100160,1,39,39,20,F,NA,variable,homogeneous,3,absent,0.655658960342407,1,vertical,vertical,1,0.894111967086792,green,1,NaN,874.554784704298,843.857712770574,NaN,NaN,874.554784704298,843.857712770574,973.909581815937,413.504806087112,551.535633479765,542.637481142314,0,0,0,0,0,0,4,0,0,NaN,NaN,NaN,vertical,vertical,vertical,none,none,none
1c,21,100160,1,40,40,20,F,NA,variable,homogeneous,4,present,1.0574038028717,1,horizontal,horizontal,1,0.635293436050415,red,3,4,782.212099195248,345.621167183745,545.621167183745,617.787900804752,817.787900804752,854.378832816255,1054.37883281626,582.212099195248,782.212099195248,345.621167183745,545.621167183745,617.787900804752,0,0,0,0,0,0,4,0,NaN,NaN,vertical,vertical,horizontal,horizontal,none,none
1c,21,100160,1,41,41,20,F,NA,variable,homogeneous,4,present,0.548830032348633,1,vertical,vertical,1,0.894111967086792,green,3,2,755.719714694933,348.874022981887,1051.12597701811,555.719714694933,844.280285305067,851.125977018113,1051.12597701811,555.719714694933,755.719714694933,348.874022981887,548.874022981887,644.280285305067,0,0,0,0,0,0,4,0,NaN,NaN,vertical,vertical,vertical,horizontal,none,none
1c,21,100160,1,42,42,20,F,NA,variable,homogeneous,5,absent,1.30589699745178,1,horizontal,horizontal,1,0.705880308151245,green,1,NaN,808.899371659138,854.844660889869,NaN,NaN,808.899371659138,854.844660889869,1045.12173246427,670.287525733335,942.594190385041,388.595418998464,643.006323791957,399.057257830286,560.378381699593,687.215136548046,0,0,4,0,0,0,0,NaN,horizontal,vertical,vertical,horizontal,horizontal,none
1c,21,100160,1,43,43,20,F,NA,variable,homogeneous,3,present,0.676805019378662,1,vertical,vertical,1,1.02352123260498,green,2,3,1051.86052685176,560.109211414741,639.523300282292,401.827779828472,708.616172865948,838.063008756786,1051.86052685176,560.109211414741,639.523300282292,401.827779828472,0,0,0,0,0,0,0,4,0,NaN,NaN,NaN,horizontal,vertical,vertical,none,none,none
1c,21,100160,1,44,44,20,F,NA,variable,homogeneous,5,present,NaN,0,vertical,none,0,1.04705018997192,green,3,5,1013.86099482608,461.117046071168,545.349468637584,586.654331158049,708.616172865948,838.063008756786,998.172220171528,760.476699717708,1013.86099482608,461.117046071168,734.001143498857,353.688914296288,545.349468637584,586.654331158049,0,0,0,0,4,0,0,NaN,vertical,vertical,vertical,vertical,vertical,none
1c,21,100160,1,45,45,20,F,NA,variable,homogeneous,4,absent,0.663328170776367,1,horizontal,horizontal,1,0.976463317871094,green,2,NaN,1029.19248180629,711.784642431215,NaN,NaN,688.215357568785,829.192481806288,1029.19248180629,711.784642431215,911.784642431215,370.807518193712,570.807518193712,488.215357568785,0,0,0,0,0,4,0,0,NaN,NaN,vertical,horizontal,vertical,horizontal,none,none
1c,21,100160,1,46,46,20,F,NA,variable,homogeneous,4,absent,0.821509122848511,1,vertical,vertical,1,0.835289573669434,red,3,NaN,942.594190385041,388.595418998464,NaN,NaN,657.405809614959,811.404581001536,1011.40458100154,742.594190385041,942.594190385041,388.595418998464,588.595418998464,457.40580961496,0,0,0,0,0,0,4,0,NaN,NaN,vertical,horizontal,vertical,vertical,none,none
1c,21,100160,1,47,47,20,F,NA,variable,homogeneous,3,absent,0.786700963973999,1,horizontal,horizontal,1,1.03528571128845,red,1,NaN,813.345668841951,854.650531362416,NaN,NaN,813.345668841951,854.650531362416,1013.86099482608,461.117046071168,572.793336331966,484.232422566416,0,0,0,0,0,0,4,0,0,NaN,NaN,NaN,horizontal,vertical,vertical,none,none,none
1c,21,100160,1,48,48,20,F,NA,variable,homogeneous,4,present,0.958976984024048,1,horizontal,horizontal,1,1.02352123260498,green,3,1,800,345,800,855,800,855,1055,600,800,345,545,600,0,0,0,0,0,0,4,0,NaN,NaN,vertical,vertical,horizontal,vertical,none,none
1c,21,100160,1,49,49,20,F,NA,variable,homogeneous,6,present,0.640038013458252,1,horizontal,horizontal,1,1.08234362602234,green,3,1,1046.31108570371,534.001143498857,734.001143498857,846.311085703712,734.001143498857,846.311085703712,980.31222920257,780.31222920257,1046.31108570371,534.001143498857,865.998856501143,353.688914296288,619.68777079743,419.68777079743,553.688914296288,665.998856501143,0,0,4,0,0,0,vertical,horizontal,horizontal,horizontal,vertical,vertical
1c,21,100160,1,50,50,20,F,NA,variable,homogeneous,5,present,0.633378028869629,1,horizontal,horizontal,1,0.623528957366943,green,5,3,604.658667004661,763.910840470068,861.690083377915,352.574589799621,895.524681321058,836.431882914531,1054.37883281626,582.212099195248,861.690083377915,352.574589799621,583.747735480111,464.870587620533,604.658667004661,763.910840470068,0,0,0,0,0,0,4,NaN,horizontal,vertical,vertical,vertical,horizontal,none
1c,21,100160,1,51,51,20,F,NA,variable,homogeneous,5,absent,0.571818113327026,1,vertical,vertical,1,0.88234748840332,green,4,NaN,712.784863451954,360.378381699593,NaN,NaN,729.712474266665,845.121732464271,1011.40458100154,742.594190385041,1000.94274216971,443.006323791957,712.784863451954,360.378381699593,545.155339110131,608.899371659138,0,0,0,0,0,4,0,NaN,vertical,horizontal,horizontal,vertical,horizontal,none
1c,21,100160,1,52,52,20,F,NA,variable,homogeneous,3,present,0.620848894119263,1,horizontal,horizontal,1,1.07057914733887,red,3,2,650.114760665419,393.700666434388,1053.60308331891,573.345241866748,696.282156015671,832.954091698863,1053.60308331891,573.345241866748,650.114760665419,393.700666434388,0,0,0,0,0,0,0,0,4,NaN,NaN,NaN,vertical,horizontal,horizontal,none,none,none
1c,21,100160,1,53,53,20,F,NA,variable,homogeneous,6,absent,0.670162200927734,1,horizontal,horizontal,1,0.847054052352905,green,2,NaN,1025.15163617903,719.715248510402,NaN,NaN,808.899371659138,854.844660889869,1025.15163617903,719.715248510402,1016.25226451989,464.870587620533,791.100628340862,345.155339110131,574.848363820974,480.284751489598,583.747735480111,735.129412379467,0,4,0,0,0,0,vertical,horizontal,vertical,horizontal,horizontal,horizontal
1c,21,100160,1,54,54,20,F,NA,variable,homogeneous,5,absent,0.568617105484009,1,vertical,vertical,1,1.03528571128845,red,4,NaN,680.284751489598,374.848363820974,NaN,NaN,764.510859255183,852.518357529101,1029.19248180629,711.784642431215,977.137884467044,416.568350913644,680.284751489598,374.848363820974,548.874022981887,644.280285305067,0,0,0,0,0,4,0,NaN,horizontal,horizontal,vertical,vertical,vertical,none
1c,21,100160,1,55,55,20,F,NA,variable,homogeneous,3,absent,0.488013982772827,0,horizontal,vertical,1,0.799996137619019,green,1,NaN,1013.86099482608,738.882953928832,NaN,NaN,1013.86099482608,738.882953928832,813.345668841951,345.349468637584,572.793336331966,715.767577433584,0,0,0,0,0,0,4,0,0,NaN,NaN,NaN,horizontal,horizontal,vertical,none,none,none
1c,21,100160,1,56,56,20,F,NA,variable,homogeneous,3,present,0.96212911605835,1,vertical,vertical,1,0.999992275238037,red,3,1,551.535633479765,542.637481142314,874.554784704298,843.857712770574,874.554784704298,843.857712770574,973.909581815937,413.504806087112,551.535633479765,542.637481142314,0,0,0,0,0,0,0,0,4,NaN,NaN,NaN,horizontal,horizontal,vertical,none,none,none
1c,21,100160,1,57,57,20,F,NA,variable,homogeneous,5,present,0.8023681640625,1,vertical,vertical,1,0.858818531036377,red,2,5,973.909581815937,786.495193912888,549.685068220846,551.343706178981,676.373546837184,823.028025320546,973.909581815937,786.495193912888,1031.10848569435,492.232343256122,768.923317431687,346.900731331463,549.685068220846,551.343706178981,0,0,0,4,0,0,0,NaN,horizontal,vertical,horizontal,horizontal,horizontal,none
1c,21,100160,1,58,58,20,F,NA,variable,homogeneous,4,absent,0.98007607460022,1,vertical,vertical,1,1.0588146686554,green,1,NaN,742.637481142314,848.464366520235,NaN,NaN,742.637481142314,848.464366520235,1048.46436652023,657.362518857686,857.362518857686,351.535633479765,551.535633479765,542.637481142314,0,0,0,0,4,0,0,0,NaN,NaN,vertical,horizontal,vertical,vertical,none,none
1c,21,100160,1,59,59,20,F,NA,variable,homogeneous,6,absent,0.785285949707031,1,vertical,vertical,1,0.870583009719849,red,2,NaN,942.594190385041,811.404581001536,NaN,NaN,688.215357568785,829.192481806288,942.594190385041,811.404581001536,1054.37883281626,582.212099195248,911.784642431215,370.807518193712,657.405809614959,388.595418998464,545.621167183745,617.787900804752,0,4,0,0,0,0,horizontal,vertical,horizontal,horizontal,vertical,horizontal
1c,21,100160,1,60,60,20,F,NA,variable,homogeneous,6,present,1.22813296318054,1,vertical,vertical,1,0.752938222885132,green,1,5,680.284751489598,825.151636179026,664.870587620533,383.747735480111,680.284751489598,825.151636179026,935.129412379467,816.252264519889,1054.84466088987,591.100628340862,919.715248510402,374.848363820974,664.870587620533,383.747735480111,545.155339110131,608.899371659138,4,0,0,0,0,0,vertical,vertical,vertical,vertical,horizontal,vertical
1c,21,100160,1,61,61,20,F,NA,variable,homogeneous,6,present,0.883769035339355,1,vertical,vertical,1,0.74117374420166,red,4,1,777.775285599347,345.970351986605,822.224714400653,854.029648013395,822.224714400653,854.029648013395,1031.10848569435,707.767656743878,1008.88377129369,453.738008730483,777.775285599347,345.970351986605,568.891514305654,492.232343256122,591.116228706307,746.261991269517,0,0,0,4,0,0,vertical,vertical,horizontal,vertical,vertical,vertical
1c,21,100160,1,62,62,20,F,NA,variable,homogeneous,6,present,1.02769207954407,1,vertical,vertical,1,0.705880308151245,green,2,4,1039.62161830041,687.215136548046,755.719714694933,348.874022981887,844.280285305067,851.125977018113,1039.62161830041,687.215136548046,995.341332995339,436.089159529932,755.719714694933,348.874022981887,560.378381699593,512.784863451954,604.658667004661,763.910840470068,0,4,0,0,0,0,horizontal,vertical,horizontal,vertical,vertical,horizontal
1c,21,100160,1,63,63,20,F,NA,variable,homogeneous,5,absent,0.692595958709717,1,horizontal,horizontal,1,0.611764478683472,red,1,NaN,786.654331158049,854.650531362416,NaN,NaN,786.654331158049,854.650531362416,1038.06300875679,691.383827134052,960.476699717708,401.827779828472,661.117046071168,386.139005173917,553.688914296288,665.998856501143,0,0,4,0,0,0,0,NaN,horizontal,horizontal,horizontal,horizontal,vertical,none
1c,21,100160,1,64,64,20,F,NA,variable,homogeneous,5,present,0.758132219314575,1,vertical,vertical,1,0.764702701568604,red,1,4,795.549636358493,854.96116226488,653.738008730483,391.116228706307,795.549636358493,854.96116226488,1041.10723677783,683.019879386575,953.462830903772,396.34794493794,653.738008730483,391.116228706307,556.142287229426,674.554784704298,0,0,4,0,0,0,0,NaN,vertical,horizontal,horizontal,vertical,horizontal,none
1c,21,100160,2,1,65,20,F,NA,variable,homogeneous,5,present,1.01736998558044,1,horizontal,horizontal,1,1.07057914733887,green,4,3,576.971974679454,476.373546837184,848.656293821019,349.685068220846,907.767656743878,831.108485694346,1053.09926866854,568.923317431687,848.656293821019,349.685068220846,576.971974679454,476.373546837184,613.504806087112,773.909581815937,0,0,0,0,0,4,0,NaN,vertical,vertical,vertical,horizontal,horizontal,none
1c,21,100160,2,2,66,20,F,NA,variable,homogeneous,3,absent,0.482025146484375,1,horizontal,horizontal,1,0.6,green,2,NaN,983.431649086356,422.862115532956,NaN,NaN,861.690083377915,847.425410200379,983.431649086356,422.862115532956,554.878267535729,529.712474266665,0,0,0,0,0,0,0,4,0,NaN,NaN,NaN,horizontal,horizontal,vertical,none,none,none
1c,21,100160,2,3,67,20,F,NA,variable,homogeneous,3,present,0.700881004333496,1,horizontal,horizontal,1,1.04705018997192,red,1,3,708.616172865948,838.063008756786,639.523300282292,401.827779828472,708.616172865948,838.063008756786,1051.86052685176,560.109211414741,639.523300282292,401.827779828472,0,0,0,0,0,0,4,0,0,NaN,NaN,NaN,horizontal,vertical,horizontal,none,none,none
1c,21,100160,2,4,68,20,F,NA,variable,homogeneous,6,absent,0.59580397605896,1,horizontal,horizontal,1,1.04705018997192,red,3,NaN,956.993676208043,399.057257830286,NaN,NaN,895.524681321058,836.431882914531,1052.5183575291,635.489140744817,956.993676208043,399.057257830286,704.475318678942,363.568117085469,547.481642470899,564.510859255183,643.006323791957,800.942742169714,0,0,4,0,0,0,horizontal,horizontal,horizontal,vertical,vertical,vertical
1c,21,100160,2,5,69,20,F,NA,variable,homogeneous,4,present,0.606656789779663,1,vertical,vertical,1,0.941169881820679,red,2,1,1034.72873763037,699.636437764765,700.363562235235,834.728737630372,700.363562235235,834.728737630372,1034.72873763037,699.636437764765,899.636437764765,365.271262369628,565.271262369628,500.363562235235,0,0,0,0,0,4,0,0,NaN,NaN,vertical,vertical,horizontal,horizontal,none,none
1c,21,100160,2,6,70,20,F,NA,variable,homogeneous,6,present,0.87972092628479,1,horizontal,horizontal,1,1.03528571128845,green,5,1,601.827779828472,439.523300282291,760.109211414741,851.86052685176,760.109211414741,851.86052685176,998.172220171528,760.476699717708,1038.06300875679,508.616172865948,839.890788585259,348.13947314824,601.827779828472,439.523300282291,561.936991243214,691.383827134052,0,0,0,0,4,0,horizontal,vertical,vertical,horizontal,horizontal,vertical
1c,21,100160,2,7,71,20,F,NA,variable,homogeneous,6,present,0.632662057876587,1,horizontal,horizontal,1,0.964698839187622,red,3,4,998.172220171528,439.523300282291,760.109211414741,348.13947314824,839.890788585259,851.86052685176,1038.06300875679,691.383827134052,998.172220171528,439.523300282291,760.109211414741,348.13947314824,561.936991243214,508.616172865948,601.827779828472,760.476699717708,0,0,4,0,0,0,vertical,vertical,horizontal,horizontal,vertical,horizontal
1c,21,100160,2,8,72,20,F,NA,variable,homogeneous,4,absent,0.603458881378174,1,vertical,vertical,1,0.705880308151245,green,4,NaN,545.621167183745,617.787900804752,NaN,NaN,817.787900804752,854.378832816255,1054.37883281626,582.212099195248,782.212099195248,345.621167183745,545.621167183745,617.787900804752,0,0,0,0,0,0,0,4,NaN,NaN,horizontal,horizontal,horizontal,vertical,none,none
1c,21,100160,2,9,73,20,F,NA,variable,homogeneous,6,present,0.596846103668213,1,horizontal,horizontal,1,0.658822393417358,red,6,5,552.574589799621,661.690083377915,622.862115532956,416.568350913644,729.712474266665,845.121732464271,977.137884467044,783.431649086356,1047.42541020038,538.309916622085,870.287525733335,354.878267535729,622.862115532956,416.568350913644,552.574589799621,661.690083377915,0,0,0,0,0,4,horizontal,vertical,horizontal,horizontal,horizontal,horizontal
1c,21,100160,2,10,74,20,F,NA,variable,homogeneous,6,absent,0.729628086090088,0,horizontal,vertical,1,0.835289573669434,green,1,NaN,777.775285599347,854.029648013395,NaN,NaN,777.775285599347,854.029648013395,1008.88377129369,746.261991269517,1031.10848569435,492.232343256122,822.224714400653,345.970351986605,591.116228706307,453.738008730483,568.891514305654,707.767656743878,4,0,0,0,0,0,horizontal,vertical,vertical,vertical,vertical,vertical
1c,21,100160,2,11,75,20,F,NA,variable,homogeneous,3,absent,0.748426914215088,1,vertical,vertical,1,0.999992275238037,green,3,NaN,586.139005173917,461.117046071168,NaN,NaN,786.654331158049,854.650531362416,1027.20666366803,484.232422566416,586.139005173917,461.117046071168,0,0,0,0,0,0,0,0,4,NaN,NaN,NaN,vertical,horizontal,vertical,none,none,none
1c,21,100160,2,12,76,20,F,NA,variable,homogeneous,6,absent,0.575441837310791,1,vertical,vertical,1,0.988227796554565,red,4,NaN,725.445215295702,356.142287229426,NaN,NaN,874.554784704298,843.857712770574,1048.46436652023,657.362518857686,973.909581815937,413.504806087112,725.445215295702,356.142287229426,551.535633479765,542.637481142314,626.090418184063,786.495193912888,0,0,0,4,0,0,horizontal,horizontal,vertical,vertical,vertical,horizontal
1c,21,100160,2,13,77,20,F,NA,variable,homogeneous,3,present,0.580119132995605,1,horizontal,horizontal,1,0.847054052352905,green,3,2,692.232343256122,368.891514305654,1054.0296480134,622.224714400653,653.738008730483,808.883771293693,1054.0296480134,622.224714400653,692.232343256122,368.891514305654,0,0,0,0,0,0,0,0,4,NaN,NaN,NaN,horizontal,horizontal,horizontal,none,none,none
1c,21,100160,2,14,78,20,F,NA,variable,homogeneous,5,absent,0.84751296043396,1,vertical,vertical,1,0.776467180252075,red,3,NaN,942.594190385041,388.595418998464,NaN,NaN,808.899371659138,854.844660889869,1045.12173246427,670.287525733335,942.594190385041,388.595418998464,643.006323791957,399.057257830286,560.378381699593,687.215136548046,0,0,0,0,4,0,0,NaN,vertical,vertical,vertical,horizontal,horizontal,none
1c,21,100160,2,15,79,20,F,NA,variable,homogeneous,3,present,0.669582843780518,1,horizontal,horizontal,1,0.647057914733887,green,1,3,782.212099195248,854.378832816255,588.595418998464,457.40580961496,782.212099195248,854.378832816255,1029.19248180629,488.215357568785,588.595418998464,457.40580961496,0,0,0,0,0,0,4,0,0,NaN,NaN,NaN,horizontal,vertical,vertical,none,none,none
1c,21,100160,2,16,80,20,F,NA,variable,homogeneous,5,present,0.564013957977295,1,horizontal,horizontal,1,0.623528957366943,green,4,3,581.422338320961,468.665290897936,857.362518857686,351.535633479765,899.636437764765,834.728737630372,1054.0296480134,577.775285599347,857.362518857686,351.535633479765,581.422338320961,468.665290897936,607.549057043193,767.295052392579,0,0,0,0,0,4,0,NaN,horizontal,horizontal,horizontal,horizontal,vertical,none
1c,21,100160,2,17,81,20,F,NA,variable,homogeneous,4,present,0.979802131652832,1,horizontal,horizontal,1,0.623528957366943,red,1,3,716.980120613425,841.107236777826,883.019879386575,358.892763222174,716.980120613425,841.107236777826,1041.10723677783,683.019879386575,883.019879386575,358.892763222174,558.892763222174,516.980120613425,0,0,0,0,4,0,0,0,NaN,NaN,horizontal,horizontal,vertical,horizontal,none,none
1c,21,100160,2,18,82,20,F,NA,variable,homogeneous,5,present,0.931885004043579,1,vertical,vertical,1,0.611764478683472,green,3,5,995.341332995339,436.089159529932,545.621167183745,617.787900804752,738.309916622085,847.425410200379,1016.25226451989,735.129412379467,995.341332995339,436.089159529932,704.475318678942,363.568117085469,545.621167183745,617.787900804752,0,0,0,0,4,0,0,NaN,vertical,horizontal,vertical,horizontal,horizontal,none
1c,21,100160,2,19,83,20,F,NA,variable,homogeneous,3,absent,0.673825979232788,1,vertical,vertical,1,0.74117374420166,green,3,NaN,596.34794493794,446.537169096228,NaN,NaN,768.923317431687,853.099268668537,1034.72873763037,500.363562235235,596.34794493794,446.537169096228,0,0,0,0,0,0,0,0,4,NaN,NaN,NaN,horizontal,vertical,vertical,none,none,none
1c,21,100160,2,20,84,20,F,NA,variable,homogeneous,5,absent,0.516983032226562,1,vertical,vertical,1,0.88234748840332,red,4,NaN,572.793336331966,484.232422566416,NaN,NaN,915.767577433584,827.206663668034,1051.86052685176,560.109211414741,839.890788585259,348.13947314824,572.793336331966,484.232422566416,619.68777079743,780.31222920257,0,0,0,0,0,4,0,NaN,horizontal,horizontal,horizontal,vertical,horizontal,none
1c,21,100160,2,21,85,20,F,NA,variable,homogeneous,3,absent,0.551771879196167,1,horizontal,horizontal,1,0.81176061630249,green,2,NaN,923.626453162816,376.971974679454,NaN,NaN,931.334709102064,818.577661679039,923.626453162816,376.971974679454,545.03883773512,604.450363641507,0,0,0,0,0,0,0,4,0,NaN,NaN,NaN,horizontal,horizontal,horizontal,none,none,none
1c,21,100160,2,22,86,20,F,NA,variable,homogeneous,3,absent,0.735701084136963,1,vertical,vertical,1,0.835289573669434,red,1,NaN,616.568350913644,777.137884467044,NaN,NaN,616.568350913644,777.137884467044,1045.12173246427,670.287525733335,738.309916622085,352.574589799621,0,0,0,0,0,0,4,0,0,NaN,NaN,NaN,vertical,horizontal,vertical,none,none,none
1c,21,100160,2,23,87,20,F,NA,variable,homogeneous,5,present,0.607351064682007,1,horizontal,horizontal,1,1.03528571128845,red,5,2,548.874022981887,555.719714694933,977.137884467044,783.431649086356,680.284751489598,825.151636179026,977.137884467044,783.431649086356,1029.19248180629,488.215357568785,764.510859255183,347.4816424709,548.874022981887,555.719714694933,0,0,0,0,0,0,4,NaN,horizontal,horizontal,horizontal,horizontal,horizontal,none
1c,21,100160,2,24,88,20,F,NA,variable,homogeneous,4,absent,0.602773904800415,1,horizontal,horizontal,1,0.752938222885132,red,1,NaN,729.712474266665,845.121732464271,NaN,NaN,729.712474266665,845.121732464271,1045.12173246427,670.287525733335,870.287525733335,354.878267535729,554.878267535729,529.712474266665,0,0,0,0,4,0,0,0,NaN,NaN,horizontal,horizontal,vertical,horizontal,none,none
1c,21,100160,2,25,89,20,F,NA,variable,homogeneous,3,absent,0.555684804916382,1,horizontal,horizontal,1,0.635293436050415,red,1,NaN,804.450363641507,854.96116226488,NaN,NaN,804.450363641507,854.96116226488,1018.57766167904,468.665290897936,576.971974679454,476.373546837184,0,0,0,0,0,0,4,0,0,NaN,NaN,NaN,horizontal,vertical,horizontal,none,none,none
1c,21,100160,2,26,90,20,F,NA,variable,homogeneous,4,absent,0.589967012405396,1,horizontal,horizontal,1,0.95293436050415,red,1,NaN,946.261991269517,808.883771293693,NaN,NaN,946.261991269517,808.883771293693,1008.88377129369,453.738008730483,653.738008730483,391.116228706307,591.116228706307,746.261991269517,0,0,0,0,4,0,0,0,NaN,NaN,horizontal,horizontal,horizontal,horizontal,none,none
1c,21,100160,2,27,91,20,F,NA,variable,homogeneous,4,absent,0.593500137329102,1,vertical,vertical,1,0.964698839187622,red,2,NaN,1003.65205506206,753.462830903772,NaN,NaN,646.537169096228,803.65205506206,1003.65205506206,753.462830903772,953.462830903772,396.34794493794,596.34794493794,446.537169096228,0,0,0,0,0,4,0,0,NaN,NaN,horizontal,vertical,horizontal,vertical,none,none
1c,21,100160,2,28,92,20,F,NA,variable,homogeneous,4,absent,0.676342964172363,1,horizontal,horizontal,1,0.74117374420166,green,4,NaN,610.498069503264,429.371695378491,NaN,NaN,629.371695378491,789.501930496736,989.501930496736,770.628304621509,970.628304621509,410.498069503264,610.498069503264,429.371695378491,0,0,0,0,0,0,0,4,NaN,NaN,vertical,vertical,horizontal,horizontal,none,none
1c,21,100160,2,29,93,20,F,NA,variable,homogeneous,3,present,0.655391216278076,1,vertical,vertical,1,0.682351350784302,green,2,1,953.462830903772,396.34794493794,899.636437764765,834.728737630372,899.636437764765,834.728737630372,953.462830903772,396.34794493794,546.900731331463,568.923317431687,0,0,0,0,0,0,0,4,0,NaN,NaN,NaN,horizontal,vertical,horizontal,none,none,none
1c,21,100160,2,30,94,20,F,NA,variable,homogeneous,5,absent,0.582688093185425,1,vertical,vertical,1,1.09410810470581,green,4,NaN,610.498069503264,429.371695378491,NaN,NaN,853.017481158529,849.42763818712,1053.60308331891,626.654758133252,903.717843984329,367.045908301137,610.498069503264,429.371695378491,579.163522034968,727.5,0,0,0,0,0,4,0,NaN,vertical,horizontal,vertical,vertical,vertical,none
1c,21,100160,2,31,95,20,F,NA,variable,homogeneous,5,absent,0.715065002441406,1,horizontal,horizontal,1,0.623528957366943,green,3,NaN,973.909581815937,413.504806087112,NaN,NaN,768.923317431687,853.099268668537,1031.10848569435,707.767656743878,973.909581815937,413.504806087112,676.373546837184,376.971974679454,549.685068220846,648.656293821019,0,0,0,0,4,0,0,NaN,vertical,horizontal,horizontal,vertical,vertical,none
1c,21,100160,2,32,96,20,F,NA,variable,homogeneous,6,present,0.946481943130493,1,vertical,vertical,1,0.858818531036377,red,5,3,672.5,379.163522034968,1055,600,672.5,820.836477965032,927.5,820.836477965032,1055,600,927.5,379.163522034968,672.5,379.163522034968,545,600,0,0,0,0,4,0,horizontal,vertical,horizontal,horizontal,vertical,vertical
1c,21,100160,2,33,97,20,F,NA,variable,homogeneous,4,absent,0.527234077453613,1,vertical,vertical,1,1.08234362602234,green,2,NaN,1018.57766167904,731.334709102064,NaN,NaN,668.665290897936,818.577661679039,1018.57766167904,731.334709102064,931.334709102064,381.422338320961,581.422338320961,468.665290897936,0,0,0,0,0,4,0,0,NaN,NaN,horizontal,vertical,vertical,horizontal,none,none
1c,21,100160,2,34,98,20,F,NA,variable,homogeneous,5,absent,0.683762073516846,1,horizontal,horizontal,1,0.88234748840332,red,2,NaN,1052.5183575291,635.489140744817,NaN,NaN,844.280285305067,851.125977018113,1052.5183575291,635.489140744817,911.784642431215,370.807518193712,616.568350913644,422.862115532956,574.848363820974,719.715248510402,0,0,0,4,0,0,0,NaN,vertical,horizontal,horizontal,horizontal,horizontal,none
1c,21,100160,2,35,99,20,F,NA,variable,homogeneous,6,absent,0.763189077377319,1,horizontal,horizontal,1,0.682351350784302,red,6,NaN,643.006323791957,800.942742169714,NaN,NaN,895.524681321058,836.431882914531,1052.5183575291,635.489140744817,956.993676208043,399.057257830286,704.475318678942,363.568117085469,547.481642470899,564.510859255183,643.006323791957,800.942742169714,0,0,0,0,0,4,vertical,horizontal,vertical,horizontal,vertical,horizontal
1c,21,100160,2,36,100,20,F,NA,variable,homogeneous,3,present,0.576910018920898,1,vertical,vertical,1,0.717644786834717,red,3,2,773.345241866748,346.39691668109,1032.95409169886,703.717843984329,593.700666434388,749.885239334581,1032.95409169886,703.717843984329,773.345241866748,346.39691668109,0,0,0,0,0,0,0,0,4,NaN,NaN,NaN,vertical,vertical,vertical,none,none,none
1c,21,100160,2,37,101,20,F,NA,variable,homogeneous,4,present,0.681245088577271,1,vertical,vertical,1,0.635293436050415,green,2,1,1013.86099482608,738.882953928832,661.117046071168,813.860994826083,661.117046071168,813.860994826083,1013.86099482608,738.882953928832,938.882953928832,386.139005173917,586.139005173917,461.117046071168,0,0,0,0,0,4,0,0,NaN,NaN,vertical,vertical,horizontal,horizontal,none,none
1c,21,100160,2,38,102,20,F,NA,variable,homogeneous,5,absent,0.563196897506714,1,horizontal,horizontal,1,0.799996137619019,green,2,NaN,1046.31108570371,665.998856501143,NaN,NaN,813.345668841951,854.650531362416,1046.31108570371,665.998856501143,938.882953928832,386.139005173917,639.523300282292,401.827779828472,561.936991243214,691.383827134052,0,0,0,4,0,0,0,NaN,horizontal,horizontal,horizontal,horizontal,horizontal,none
1c,21,100160,2,39,103,20,F,NA,variable,homogeneous,6,present,0.775867938995361,1,vertical,vertical,1,0.858818531036377,green,5,1,583.747735480111,464.870587620533,791.100628340862,854.844660889869,791.100628340862,854.844660889869,1016.25226451989,735.129412379467,1025.15163617903,480.284751489598,808.899371659138,345.155339110131,583.747735480111,464.870587620533,574.848363820974,719.715248510402,0,0,0,0,4,0,horizontal,vertical,horizontal,horizontal,vertical,vertical
1c,21,100160,2,40,104,20,F,NA,variable,homogeneous,3,present,0.657866954803467,1,vertical,vertical,1,0.705880308151245,red,3,1,554.878267535729,529.712474266665,861.690083377915,847.425410200379,861.690083377915,847.425410200379,983.431649086356,422.862115532956,554.878267535729,529.712474266665,0,0,0,0,0,0,0,0,4,NaN,NaN,NaN,horizontal,horizontal,vertical,none,none,none
1c,21,100160,2,41,105,20,F,NA,variable,homogeneous,3,absent,1.40759110450745,1,vertical,vertical,1,1.01175675392151,red,1,NaN,782.212099195248,854.378832816255,NaN,NaN,782.212099195248,854.378832816255,1029.19248180629,488.215357568785,588.595418998464,457.40580961496,0,0,0,0,0,0,4,0,0,NaN,NaN,NaN,vertical,horizontal,vertical,none,none,none
1c,21,100160,2,42,106,20,F,NA,variable,homogeneous,4,absent,0.762474060058594,1,horizontal,horizontal,1,0.929405403137207,green,4,NaN,579.163522034968,472.5,NaN,NaN,672.5,820.836477965032,1020.83647796503,727.5,927.5,379.163522034968,579.163522034968,472.5,0,0,0,0,0,0,0,4,NaN,NaN,horizontal,horizontal,vertical,horizontal,none,none
1c,21,100160,2,43,107,20,F,NA,variable,homogeneous,6,absent,0.69153094291687,1,vertical,vertical,1,0.682351350784302,green,1,NaN,751.343706178981,850.314931779154,NaN,NaN,751.343706178981,850.314931779154,992.450942956807,767.295052392579,1041.10723677783,516.980120613425,848.656293821019,349.685068220846,607.549057043193,432.704947607421,558.892763222174,683.019879386575,4,0,0,0,0,0,vertical,vertical,vertical,horizontal,vertical,horizontal
1c,21,100160,2,44,108,20,F,NA,variable,homogeneous,6,present,0.877445936203003,1,horizontal,horizontal,1,0.799996137619019,green,6,5,546.39691668109,626.654758133252,650.114760665419,393.700666434388,696.282156015671,832.954091698863,949.885239334581,806.299333565612,1053.60308331891,573.345241866748,903.717843984329,367.045908301137,650.114760665419,393.700666434388,546.39691668109,626.654758133252,0,0,0,0,0,4,horizontal,horizontal,vertical,horizontal,horizontal,horizontal
1c,21,100160,2,45,109,20,F,NA,variable,homogeneous,5,absent,0.624218940734863,1,vertical,vertical,1,0.858818531036377,green,3,NaN,865.998856501143,353.688914296288,NaN,NaN,891.383827134052,838.063008756786,1054.65053136242,586.654331158049,865.998856501143,353.688914296288,586.139005173917,461.117046071168,601.827779828472,760.476699717708,0,0,0,0,4,0,0,NaN,horizontal,vertical,vertical,horizontal,horizontal,none
1c,21,100160,2,46,110,20,F,NA,variable,homogeneous,6,absent,0.677421808242798,1,horizontal,horizontal,1,0.623528957366943,green,4,NaN,738.309916622085,352.574589799621,NaN,NaN,861.690083377915,847.425410200379,1045.12173246427,670.287525733335,983.431649086356,422.862115532956,738.309916622085,352.574589799621,554.878267535729,529.712474266665,616.568350913644,777.137884467044,0,0,0,4,0,0,horizontal,vertical,horizontal,horizontal,vertical,horizontal
1c,21,100160,2,47,111,20,F,NA,variable,homogeneous,4,present,0.748373985290527,1,horizontal,horizontal,1,1.07057914733887,red,2,3,1008.88377129369,746.261991269517,946.261991269517,391.116228706307,653.738008730483,808.883771293693,1008.88377129369,746.261991269517,946.261991269517,391.116228706307,591.116228706307,453.738008730483,0,0,0,0,0,4,0,0,NaN,NaN,horizontal,horizontal,vertical,horizontal,none,none
1c,21,100160,2,48,112,20,F,NA,variable,homogeneous,5,present,0.665312051773071,1,vertical,vertical,1,0.88234748840332,green,5,1,632.704947607421,792.450942956807,931.334709102064,818.577661679039,931.334709102064,818.577661679039,1048.46436652023,542.637481142314,822.224714400653,345.970351986605,565.271262369628,500.363562235235,632.704947607421,792.450942956807,0,0,0,0,0,0,4,NaN,horizontal,vertical,vertical,horizontal,vertical,none
1c,21,100160,2,49,113,20,F,NA,variable,homogeneous,5,present,0.805709838867188,1,horizontal,horizontal,1,0.74117374420166,red,4,2,680.284751489598,374.848363820974,1029.19248180629,711.784642431215,764.510859255183,852.518357529101,1029.19248180629,711.784642431215,977.137884467044,416.568350913644,680.284751489598,374.848363820974,548.874022981887,644.280285305067,0,0,0,0,0,4,0,NaN,horizontal,vertical,vertical,horizontal,vertical,none
1c,21,100160,2,50,114,20,F,NA,variable,homogeneous,4,absent,0.912787914276123,1,vertical,vertical,1,0.95293436050415,red,3,NaN,831.076682568313,346.900731331463,NaN,NaN,768.923317431687,853.099268668537,1053.09926866854,631.076682568313,831.076682568313,346.900731331463,546.900731331463,568.923317431687,0,0,0,0,0,0,4,0,NaN,NaN,vertical,horizontal,vertical,vertical,none,none
1c,21,100160,2,51,115,20,F,NA,variable,homogeneous,6,present,0.904917001724243,1,vertical,vertical,1,0.88234748840332,red,1,4,903.717843984329,832.954091698863,696.282156015671,367.045908301137,903.717843984329,832.954091698863,1053.60308331891,626.654758133252,949.885239334581,393.700666434388,696.282156015671,367.045908301137,546.39691668109,573.345241866748,650.114760665419,806.299333565612,4,0,0,0,0,0,vertical,vertical,vertical,horizontal,vertical,vertical
1c,21,100160,2,52,116,20,F,NA,variable,homogeneous,5,present,0.70356822013855,1,vertical,vertical,1,1.01175675392151,red,4,2,629.371695378491,410.498069503264,1049.42763818712,653.017481158529,826.654758133252,853.60308331891,1049.42763818712,653.017481158529,927.5,379.163522034968,629.371695378491,410.498069503264,567.045908301137,703.717843984329,0,0,0,0,0,4,0,NaN,vertical,vertical,horizontal,vertical,horizontal,none
1c,21,100160,2,53,117,20,F,NA,variable,homogeneous,3,present,0.553396940231323,1,vertical,vertical,1,0.788231658935547,green,3,1,632.704947607421,407.549057043193,716.980120613425,841.107236777826,716.980120613425,841.107236777826,1050.31493177915,551.343706178981,632.704947607421,407.549057043193,0,0,0,0,0,0,0,0,4,NaN,NaN,NaN,vertical,horizontal,vertical,none,none,none
1c,21,100160,2,54,118,20,F,NA,variable,homogeneous,4,present,1.0282289981842,1,vertical,vertical,1,0.976463317871094,red,1,3,791.100628340862,854.844660889869,808.899371659138,345.155339110131,791.100628340862,854.844660889869,1054.84466088987,608.899371659138,808.899371659138,345.155339110131,545.155339110131,591.100628340862,0,0,0,0,4,0,0,0,NaN,NaN,vertical,vertical,horizontal,horizontal,none,none
1c,21,100160,2,55,119,20,F,NA,variable,homogeneous,6,absent,0.528342962265015,1,vertical,vertical,1,0.95293436050415,red,1,NaN,865.998856501143,846.311085703712,NaN,NaN,865.998856501143,846.311085703712,1046.31108570371,665.998856501143,980.31222920257,419.68777079743,734.001143498857,353.688914296288,553.688914296288,534.001143498857,619.68777079743,780.31222920257,4,0,0,0,0,0,vertical,horizontal,horizontal,vertical,horizontal,vertical
1c,21,100160,2,56,120,20,F,NA,variable,homogeneous,4,present,0.630932807922363,1,horizontal,horizontal,1,0.988227796554565,green,1,2,831.076682568313,853.099268668537,1053.09926866854,568.923317431687,831.076682568313,853.099268668537,1053.09926866854,568.923317431687,768.923317431687,346.900731331463,546.900731331463,631.076682568313,0,0,0,0,4,0,0,0,NaN,NaN,horizontal,horizontal,horizontal,vertical,none,none
1c,21,100160,2,57,121,20,F,NA,variable,homogeneous,5,absent,0.862774133682251,0,horizontal,vertical,1,0.764702701568604,red,3,NaN,919.715248510402,374.848363820974,NaN,NaN,835.489140744817,852.518357529101,1051.12597701811,644.280285305067,919.715248510402,374.848363820974,622.862115532956,416.568350913644,570.807518193712,711.784642431215,0,0,0,0,4,0,0,NaN,vertical,horizontal,horizontal,horizontal,vertical,none
1c,21,100160,2,58,122,20,F,NA,variable,homogeneous,5,present,0.785669088363647,1,vertical,vertical,1,0.870583009719849,red,4,2,653.738008730483,391.116228706307,1041.10723677783,683.019879386575,795.549636358493,854.96116226488,1041.10723677783,683.019879386575,953.462830903772,396.34794493794,653.738008730483,391.116228706307,556.142287229426,674.554784704298,0,0,0,0,0,4,0,NaN,vertical,vertical,vertical,vertical,vertical,none
1c,21,100160,2,59,123,20,F,NA,variable,homogeneous,6,absent,0.785866022109985,1,vertical,vertical,1,0.81176061630249,green,3,NaN,1054.84466088987,591.100628340862,NaN,NaN,680.284751489598,825.151636179026,935.129412379467,816.252264519889,1054.84466088987,591.100628340862,919.715248510402,374.848363820974,664.870587620533,383.747735480111,545.155339110131,608.899371659138,0,0,4,0,0,0,vertical,horizontal,vertical,horizontal,horizontal,horizontal
1c,21,100160,2,60,124,20,F,NA,variable,homogeneous,3,present,0.891175031661987,1,horizontal,horizontal,1,0.88234748840332,red,2,3,1025.15163617903,480.284751489598,583.747735480111,464.870587620533,791.100628340862,854.844660889869,1025.15163617903,480.284751489598,583.747735480111,464.870587620533,0,0,0,0,0,0,0,4,0,NaN,NaN,NaN,horizontal,horizontal,horizontal,none,none,none
1c,21,100160,2,61,125,20,F,NA,variable,homogeneous,4,present,0.857320070266724,1,vertical,vertical,1,0.611764478683472,green,4,1,545.155339110131,608.899371659138,808.899371659138,854.844660889869,808.899371659138,854.844660889869,1054.84466088987,591.100628340862,791.100628340862,345.155339110131,545.155339110131,608.899371659138,0,0,0,0,0,0,0,4,NaN,NaN,horizontal,vertical,vertical,vertical,none,none
1c,21,100160,2,62,126,20,F,NA,variable,homogeneous,6,present,0.555422067642212,1,vertical,vertical,1,1.0588146686554,green,5,1,546.39691668109,573.345241866748,903.717843984329,832.954091698863,903.717843984329,832.954091698863,1053.60308331891,626.654758133252,949.885239334581,393.700666434388,696.282156015671,367.045908301137,546.39691668109,573.345241866748,650.114760665419,806.299333565612,0,0,0,0,4,0,horizontal,vertical,horizontal,vertical,vertical,horizontal
1c,21,100160,2,63,127,20,F,NA,variable,homogeneous,4,present,1.08057880401611,1,horizontal,horizontal,1,0.67058687210083,green,3,2,848.656293821019,349.685068220846,1050.31493177915,648.656293821019,751.343706178981,850.314931779154,1050.31493177915,648.656293821019,848.656293821019,349.685068220846,549.685068220846,551.343706178981,0,0,0,0,0,0,4,0,NaN,NaN,vertical,horizontal,horizontal,vertical,none,none
1c,21,100160,2,64,128,20,F,NA,variable,homogeneous,3,absent,0.614104032516479,0,horizontal,vertical,1,0.999992275238037,red,2,NaN,1008.88377129369,453.738008730483,NaN,NaN,822.224714400653,854.029648013395,1008.88377129369,453.738008730483,568.891514305654,492.232343256122,0,0,0,0,0,0,0,4,0,NaN,NaN,NaN,horizontal,horizontal,horizontal,none,none,none
1c,21,100160,3,1,129,20,F,NA,variable,homogeneous,6,absent,1.58675098419189,1,vertical,vertical,1,1.01175675392151,red,1,NaN,844.280285305067,851.125977018113,NaN,NaN,844.280285305067,851.125977018113,1039.62161830041,687.215136548046,995.341332995339,436.089159529932,755.719714694933,348.874022981887,560.378381699593,512.784863451954,604.658667004661,763.910840470068,4,0,0,0,0,0,vertical,horizontal,vertical,vertical,horizontal,vertical
1c,21,100160,3,2,130,20,F,NA,variable,homogeneous,4,absent,0.565626859664917,1,horizontal,horizontal,1,0.941169881820679,green,3,NaN,853.017481158529,350.57236181288,NaN,NaN,746.982518841471,849.42763818712,1049.42763818712,653.017481158529,853.017481158529,350.57236181288,550.57236181288,546.982518841471,0,0,0,0,0,0,4,0,NaN,NaN,horizontal,vertical,horizontal,horizontal,none,none
1c,21,100160,3,3,131,20,F,NA,variable,homogeneous,3,present,0.759072065353394,1,horizontal,horizontal,1,0.894111967086792,green,1,3,616.568350913644,777.137884467044,738.309916622085,352.574589799621,616.568350913644,777.137884467044,1045.12173246427,670.287525733335,738.309916622085,352.574589799621,0,0,0,0,0,0,4,0,0,NaN,NaN,NaN,horizontal,vertical,horizontal,none,none,none
1c,21,100160,3,4,132,20,F,NA,variable,homogeneous,6,absent,0.682762145996094,1,horizontal,horizontal,1,1.02352123260498,green,5,NaN,545.03883773512,595.549636358493,NaN,NaN,923.626453162816,823.028025320546,1054.96116226488,604.450363641507,931.334709102064,381.422338320961,676.373546837184,376.971974679454,545.03883773512,595.549636358493,668.665290897936,818.577661679039,0,0,0,0,4,0,vertical,horizontal,horizontal,horizontal,horizontal,horizontal
1c,21,100160,3,5,133,20,F,NA,variable,homogeneous,5,present,0.619619131088257,1,vertical,vertical,1,0.95293436050415,red,3,5,883.019879386575,358.892763222174,591.116228706307,746.261991269517,874.554784704298,843.857712770574,1054.96116226488,604.450363641507,883.019879386575,358.892763222174,596.34794493794,446.537169096228,591.116228706307,746.261991269517,0,0,0,0,4,0,0,NaN,vertical,horizontal,vertical,vertical,horizontal,none
1c,21,100160,3,6,134,20,F,NA,variable,homogeneous,6,absent,0.588701963424683,1,vertical,vertical,1,0.623528957366943,green,3,NaN,1006.29933356561,450.114760665419,NaN,NaN,826.654758133252,853.60308331891,1032.95409169886,703.717843984329,1006.29933356561,450.114760665419,773.345241866748,346.39691668109,567.045908301137,496.282156015671,593.700666434388,749.885239334581,0,0,4,0,0,0,vertical,horizontal,vertical,vertical,vertical,horizontal
1c,21,100160,3,7,135,20,F,NA,variable,homogeneous,5,absent,0.925826072692871,1,horizontal,horizontal,1,0.647057914733887,red,1,NaN,911.784642431215,829.192481806288,NaN,NaN,911.784642431215,829.192481806288,1052.5183575291,564.510859255183,844.280285305067,348.874022981887,574.848363820974,480.284751489598,616.568350913644,777.137884467044,0,0,4,0,0,0,0,NaN,horizontal,horizontal,horizontal,horizontal,horizontal,none
1c,21,100160,3,8,136,20,F,NA,variable,homogeneous,6,present,0.63311505317688,1,vertical,vertical,1,0.835289573669434,red,6,1,616.568350913644,777.137884467044,861.690083377915,847.425410200379,861.690083377915,847.425410200379,1045.12173246427,670.287525733335,983.431649086356,422.862115532956,738.309916622085,352.574589799621,554.878267535729,529.712474266665,616.568350913644,777.137884467044,0,0,0,0,0,4,vertical,vertical,vertical,horizontal,horizontal,vertical
1c,21,100160,3,9,137,20,F,NA,variable,homogeneous,5,absent,0.775269985198975,1,horizontal,horizontal,1,0.870583009719849,red,5,NaN,548.13947314824,639.890788585259,NaN,NaN,760.109211414741,851.86052685176,1027.20666366803,715.767577433584,980.31222920257,419.68777079743,684.232422566416,372.793336331966,548.13947314824,639.890788585259,0,0,0,0,0,0,4,NaN,horizontal,vertical,horizontal,horizontal,horizontal,none
1c,21,100160,3,10,138,20,F,NA,variable,homogeneous,4,absent,0.689229965209961,1,vertical,vertical,1,0.705880308151245,green,1,NaN,883.019879386575,841.107236777826,NaN,NaN,883.019879386575,841.107236777826,1041.10723677783,516.980120613425,716.980120613425,358.892763222174,558.892763222174,683.019879386575,0,0,0,0,4,0,0,0,NaN,NaN,vertical,horizontal,horizontal,vertical,none,none
1c,21,100160,3,11,139,20,F,NA,variable,homogeneous,3,absent,0.802076816558838,1,horizontal,horizontal,1,0.95293436050415,green,2,NaN,1046.31108570371,665.998856501143,NaN,NaN,619.68777079743,780.31222920257,1046.31108570371,665.998856501143,734.001143498857,353.688914296288,0,0,0,0,0,0,0,4,0,NaN,NaN,NaN,vertical,horizontal,horizontal,none,none,none
1c,21,100160,3,12,140,20,F,NA,variable,homogeneous,6,present,0.779179096221924,1,vertical,vertical,1,0.635293436050415,green,6,3,664.870587620533,816.252264519889,935.129412379467,383.747735480111,919.715248510402,825.151636179026,1054.84466088987,608.899371659138,935.129412379467,383.747735480111,680.284751489598,374.848363820974,545.155339110131,591.100628340862,664.870587620533,816.252264519889,0,0,0,0,0,4,horizontal,horizontal,vertical,vertical,horizontal,vertical
1c,21,100160,3,13,141,20,F,NA,variable,homogeneous,6,absent,0.997556924819946,1,horizontal,horizontal,1,0.929405403137207,red,6,NaN,563.568117085469,695.524681321058,NaN,NaN,764.510859255183,852.518357529101,1000.94274216971,756.993676208043,1036.43188291453,504.475318678942,835.489140744817,347.4816424709,599.057257830286,443.006323791957,563.568117085469,695.524681321058,0,0,0,0,0,4,vertical,horizontal,vertical,horizontal,vertical,horizontal
1c,21,100160,3,14,142,20,F,NA,variable,homogeneous,3,absent,0.570744037628174,1,horizontal,horizontal,1,1.0588146686554,green,1,NaN,839.890788585259,851.86052685176,NaN,NaN,839.890788585259,851.86052685176,998.172220171528,439.523300282291,561.936991243214,508.616172865948,0,0,0,0,0,0,4,0,0,NaN,NaN,NaN,horizontal,horizontal,horizontal,none,none,none
1c,21,100160,3,15,143,20,F,NA,variable,homogeneous,3,present,0.5002281665802,1,vertical,vertical,1,1.09410810470581,green,1,2,989.501930496736,770.628304621509,853.017481158529,350.57236181288,989.501930496736,770.628304621509,853.017481158529,350.57236181288,557.480588344736,678.799333565612,0,0,0,0,0,0,4,0,0,NaN,NaN,NaN,vertical,vertical,vertical,none,none,none
1c,21,100160,3,16,144,20,F,NA,variable,homogeneous,5,absent,0.593913078308105,1,vertical,vertical,1,0.776467180252075,green,4,NaN,572.793336331966,484.232422566416,NaN,NaN,915.767577433584,827.206663668034,1051.86052685176,560.109211414741,839.890788585259,348.13947314824,572.793336331966,484.232422566416,619.68777079743,780.31222920257,0,0,0,0,0,4,0,NaN,vertical,horizontal,horizontal,vertical,vertical,none
1c,21,100160,3,17,145,20,F,NA,variable,homogeneous,4,present,0.638679981231689,1,horizontal,horizontal,1,1.03528571128845,red,3,2,716.980120613425,358.892763222174,1041.10723677783,516.980120613425,883.019879386575,841.107236777826,1041.10723677783,516.980120613425,716.980120613425,358.892763222174,558.892763222174,683.019879386575,0,0,0,0,0,0,4,0,NaN,NaN,horizontal,vertical,horizontal,vertical,none,none
1c,21,100160,3,18,146,20,F,NA,variable,homogeneous,3,present,0.594545841217041,1,horizontal,horizontal,1,0.74117374420166,red,2,1,935.129412379467,383.747735480111,919.715248510402,825.151636179026,919.715248510402,825.151636179026,935.129412379467,383.747735480111,545.155339110131,591.100628340862,0,0,0,0,0,0,0,4,0,NaN,NaN,NaN,horizontal,horizontal,vertical,none,none,none
1c,21,100160,3,19,147,20,F,NA,variable,homogeneous,6,absent,0.576223134994507,1,horizontal,horizontal,1,1.08234362602234,green,4,NaN,729.712474266665,354.878267535729,NaN,NaN,870.287525733335,845.121732464271,1047.42541020038,661.690083377915,977.137884467044,416.568350913644,729.712474266665,354.878267535729,552.574589799621,538.309916622085,622.862115532956,783.431649086356,0,0,0,4,0,0,horizontal,horizontal,horizontal,horizontal,horizontal,vertical
1c,21,100160,3,20,148,20,F,NA,variable,homogeneous,4,present,1.45243811607361,1,vertical,vertical,1,0.823525094985962,red,3,4,970.628304621509,410.498069503264,610.498069503264,429.371695378491,629.371695378491,789.501930496736,989.501930496736,770.628304621509,970.628304621509,410.498069503264,610.498069503264,429.371695378491,0,0,0,0,0,0,4,0,NaN,NaN,vertical,vertical,vertical,horizontal,none,none
1c,21,100160,3,21,149,20,F,NA,variable,homogeneous,6,absent,0.570472002029419,1,vertical,vertical,1,0.847054052352905,green,3,NaN,1013.86099482608,461.117046071168,NaN,NaN,813.345668841951,854.650531362416,1027.20666366803,715.767577433584,1013.86099482608,461.117046071168,786.654331158049,345.349468637584,572.793336331966,484.232422566416,586.139005173917,738.882953928832,0,0,4,0,0,0,vertical,horizontal,vertical,vertical,vertical,vertical
1c,21,100160,3,22,150,20,F,NA,variable,homogeneous,3,present,0.827794075012207,1,horizontal,horizontal,1,0.67058687210083,green,1,2,989.501930496736,770.628304621509,853.017481158529,350.57236181288,989.501930496736,770.628304621509,853.017481158529,350.57236181288,557.480588344736,678.799333565612,0,0,0,0,0,0,4,0,0,NaN,NaN,NaN,horizontal,vertical,horizontal,none,none,none
1c,21,100160,3,23,151,20,F,NA,variable,homogeneous,3,present,0.766402006149292,1,horizontal,horizontal,1,0.905876445770264,red,3,2,554.878267535729,529.712474266665,983.431649086356,422.862115532956,861.690083377915,847.425410200379,983.431649086356,422.862115532956,554.878267535729,529.712474266665,0,0,0,0,0,0,0,0,4,NaN,NaN,NaN,vertical,vertical,horizontal,none,none,none
1c,21,100160,3,24,152,20,F,NA,variable,homogeneous,3,present,1.14939093589783,0,vertical,horizontal,1,0.776467180252075,red,2,3,989.501930496736,429.371695378491,557.480588344736,521.200666434388,853.017481158529,849.42763818712,989.501930496736,429.371695378491,557.480588344736,521.200666434388,0,0,0,0,0,0,0,4,0,NaN,NaN,NaN,horizontal,vertical,horizontal,none,none,none
1c,21,100160,3,25,153,20,F,NA,variable,homogeneous,6,present,1.07758593559265,1,horizontal,horizontal,1,0.647057914733887,red,5,1,548.874022981887,555.719714694933,887.215136548046,839.621618300407,887.215136548046,839.621618300407,1051.12597701811,644.280285305067,963.910840470068,404.658667004661,712.784863451954,360.378381699593,548.874022981887,555.719714694933,636.089159529932,795.341332995339,0,0,0,0,4,0,vertical,vertical,vertical,vertical,horizontal,vertical
1c,21,100160,3,26,154,20,F,NA,variable,homogeneous,5,present,0.854636192321777,1,horizontal,horizontal,1,0.964698839187622,red,3,1,1041.10723677783,516.980120613425,653.738008730483,808.883771293693,653.738008730483,808.883771293693,953.462830903772,803.65205506206,1041.10723677783,516.980120613425,795.549636358493,345.03883773512,556.142287229426,525.445215295702,0,0,0,0,4,0,0,NaN,vertical,vertical,horizontal,vertical,horizontal,none
1c,21,100160,3,27,155,20,F,NA,variable,homogeneous,5,present,0.61006498336792,1,vertical,vertical,1,0.905876445770264,green,2,3,1053.09926866854,568.923317431687,848.656293821019,349.685068220846,907.767656743878,831.108485694346,1053.09926866854,568.923317431687,848.656293821019,349.685068220846,576.971974679454,476.373546837184,613.504806087112,773.909581815937,0,0,0,4,0,0,0,NaN,vertical,vertical,vertical,vertical,vertical,none
1c,21,100160,3,28,156,20,F,NA,variable,homogeneous,6,present,0.786844968795776,1,horizontal,horizontal,1,1.03528571128845,green,2,5,935.129412379467,816.252264519889,664.870587620533,383.747735480111,680.284751489598,825.151636179026,935.129412379467,816.252264519889,1054.84466088987,591.100628340862,919.715248510402,374.848363820974,664.870587620533,383.747735480111,545.155339110131,608.899371659138,0,4,0,0,0,0,vertical,horizontal,horizontal,horizontal,vertical,horizontal
1c,21,100160,3,29,157,20,F,NA,variable,homogeneous,5,absent,0.65185809135437,1,vertical,vertical,1,1.0588146686554,red,1,NaN,777.775285599347,854.029648013395,NaN,NaN,777.775285599347,854.029648013395,1034.72873763037,699.636437764765,967.295052392579,407.549057043193,668.665290897936,381.422338320961,551.535633479765,657.362518857686,0,0,4,0,0,0,0,NaN,vertical,vertical,horizontal,vertical,vertical,none
1c,21,100160,3,30,158,20,F,NA,variable,homogeneous,4,present,0.729973077774048,1,vertical,vertical,1,0.847054052352905,green,4,3,583.747735480111,464.870587620533,935.129412379467,383.747735480111,664.870587620533,816.252264519889,1016.25226451989,735.129412379467,935.129412379467,383.747735480111,583.747735480111,464.870587620533,0,0,0,0,0,0,0,4,NaN,NaN,vertical,horizontal,horizontal,vertical,none,none
1c,21,100160,3,31,159,20,F,NA,variable,homogeneous,3,absent,0.60138988494873,1,horizontal,horizontal,1,1.03528571128845,red,2,NaN,1049.42763818712,653.017481158529,NaN,NaN,629.371695378491,789.501930496736,1049.42763818712,653.017481158529,721.200666434388,357.480588344736,0,0,0,0,0,0,0,4,0,NaN,NaN,NaN,horizontal,horizontal,horizontal,none,none,none
1c,21,100160,3,32,160,20,F,NA,variable,homogeneous,3,absent,0.629487037658691,1,horizontal,horizontal,1,0.976463317871094,red,1,NaN,931.334709102064,818.577661679039,NaN,NaN,931.334709102064,818.577661679039,923.626453162816,376.971974679454,545.03883773512,604.450363641507,0,0,0,0,0,0,4,0,0,NaN,NaN,NaN,horizontal,vertical,horizontal,none,none,none
1c,21,100160,3,33,161,20,F,NA,variable,homogeneous,5,absent,0.699444055557251,1,horizontal,horizontal,1,0.67058687210083,green,3,NaN,970.628304621509,410.498069503264,NaN,NaN,773.345241866748,853.60308331891,1032.95409169886,703.717843984329,970.628304621509,410.498069503264,672.5,379.163522034968,550.57236181288,653.017481158529,0,0,0,0,4,0,0,NaN,vertical,horizontal,horizontal,vertical,vertical,none
1c,21,100160,3,34,162,20,F,NA,variable,homogeneous,3,absent,0.558892011642456,1,vertical,vertical,1,0.858818531036377,red,1,NaN,729.712474266665,845.121732464271,NaN,NaN,729.712474266665,845.121732464271,1047.42541020038,538.309916622085,622.862115532956,416.568350913644,0,0,0,0,0,0,4,0,0,NaN,NaN,NaN,vertical,vertical,vertical,none,none,none
1c,21,100160,3,35,163,20,F,NA,variable,homogeneous,4,absent,0.618777990341187,1,vertical,vertical,1,1.02352123260498,red,4,NaN,619.68777079743,780.31222920257,NaN,NaN,980.31222920257,780.31222920257,980.31222920257,419.68777079743,619.68777079743,419.68777079743,619.68777079743,780.31222920257,0,0,0,0,0,0,0,4,NaN,NaN,horizontal,horizontal,vertical,vertical,none,none
1c,21,100160,3,36,164,20,F,NA,variable,homogeneous,5,present,0.896845817565918,1,horizontal,horizontal,1,0.682351350784302,green,4,1,672.5,379.163522034968,773.345241866748,853.60308331891,773.345241866748,853.60308331891,1032.95409169886,703.717843984329,970.628304621509,410.498069503264,672.5,379.163522034968,550.57236181288,653.017481158529,0,0,0,0,0,4,0,NaN,horizontal,horizontal,horizontal,horizontal,horizontal,none
1c,21,100160,3,37,165,20,F,NA,variable,homogeneous,4,present,0.476083040237427,1,horizontal,horizontal,1,0.858818531036377,red,4,3,616.568350913644,422.862115532956,977.137884467044,416.568350913644,622.862115532956,783.431649086356,983.431649086356,777.137884467044,977.137884467044,416.568350913644,616.568350913644,422.862115532956,0,0,0,0,0,0,0,4,NaN,NaN,vertical,horizontal,horizontal,horizontal,none,none
1c,21,100160,3,38,166,20,F,NA,variable,homogeneous,6,present,0.536571979522705,1,horizontal,horizontal,1,0.929405403137207,green,6,2,579.163522034968,727.5,1020.83647796503,727.5,800,855,1020.83647796503,727.5,1020.83647796503,472.5,800,345,579.163522034968,472.5,579.163522034968,727.5,0,0,0,0,0,4,vertical,vertical,horizontal,horizontal,vertical,horizontal
1c,21,100160,3,39,167,20,F,NA,variable,homogeneous,6,present,1.27151799201965,1,horizontal,horizontal,1,1.01175675392151,red,6,2,672.5,820.836477965032,1055,600,927.5,820.836477965032,1055,600,927.5,379.163522034968,672.5,379.163522034968,545,600,672.5,820.836477965032,0,0,0,0,0,4,vertical,horizontal,vertical,horizontal,vertical,horizontal
1c,21,100160,3,40,168,20,F,NA,variable,homogeneous,4,absent,0.581501007080078,1,vertical,vertical,1,0.799996137619019,red,1,NaN,808.899371659138,854.844660889869,NaN,NaN,808.899371659138,854.844660889869,1054.84466088987,591.100628340862,791.100628340862,345.155339110131,545.155339110131,608.899371659138,0,0,0,0,4,0,0,0,NaN,NaN,vertical,horizontal,vertical,horizontal,none,none
1c,21,100160,3,41,169,20,F,NA,variable,homogeneous,3,present,0.835667133331299,0,vertical,horizontal,1,0.74117374420166,green,2,1,1054.65053136242,613.345668841951,661.117046071168,813.860994826083,661.117046071168,813.860994826083,1054.65053136242,613.345668841951,684.232422566416,372.793336331966,0,0,0,0,0,0,0,4,0,NaN,NaN,NaN,horizontal,vertical,vertical,none,none,none
1c,21,100160,3,42,170,20,F,NA,variable,homogeneous,3,present,0.960226058959961,1,vertical,vertical,1,0.964698839187622,red,3,2,676.373546837184,376.971974679454,1054.96116226488,604.450363641507,668.665290897936,818.577661679039,1054.96116226488,604.450363641507,676.373546837184,376.971974679454,0,0,0,0,0,0,0,0,4,NaN,NaN,NaN,horizontal,horizontal,vertical,none,none,none
1c,21,100160,3,43,171,20,F,NA,variable,homogeneous,5,present,0.544149160385132,1,vertical,vertical,1,1.03528571128845,red,4,2,755.719714694933,348.874022981887,983.431649086356,777.137884467044,688.215357568785,829.192481806288,983.431649086356,777.137884467044,1025.15163617903,480.284751489598,755.719714694933,348.874022981887,547.481642470899,564.510859255183,0,0,0,0,0,4,0,NaN,horizontal,vertical,horizontal,vertical,horizontal,none
1c,21,100160,3,44,172,20,F,NA,variable,homogeneous,4,absent,0.924062013626099,1,horizontal,horizontal,1,1.03528571128845,green,4,NaN,545.349468637584,613.345668841951,NaN,NaN,813.345668841951,854.650531362416,1054.65053136242,586.654331158049,786.654331158049,345.349468637584,545.349468637584,613.345668841951,0,0,0,0,0,0,0,4,NaN,NaN,horizontal,horizontal,vertical,horizontal,none,none
1c,21,100160,3,45,173,20,F,NA,variable,homogeneous,3,absent,0.692179918289185,1,vertical,vertical,1,0.870583009719849,green,2,NaN,1025.15163617903,719.715248510402,NaN,NaN,583.747735480111,735.129412379467,1025.15163617903,719.715248510402,791.100628340862,345.155339110131,0,0,0,0,0,0,0,4,0,NaN,NaN,NaN,vertical,vertical,horizontal,none,none,none
1c,21,100160,3,46,174,20,F,NA,variable,homogeneous,5,present,0.6546311378479,1,horizontal,horizontal,1,1.02352123260498,red,5,2,568.891514305654,707.767656743878,1050.31493177915,648.656293821019,831.076682568313,853.099268668537,1050.31493177915,648.656293821019,923.626453162816,376.971974679454,626.090418184063,413.504806087112,568.891514305654,707.767656743878,0,0,0,0,0,0,4,NaN,vertical,vertical,horizontal,vertical,horizontal,none
1c,21,100160,3,47,175,20,F,NA,variable,homogeneous,6,absent,0.823031902313232,1,vertical,vertical,1,0.964698839187622,red,4,NaN,865.998856501143,353.688914296288,NaN,NaN,734.001143498857,846.311085703712,980.31222920257,780.31222920257,1046.31108570371,534.001143498857,865.998856501143,353.688914296288,619.68777079743,419.68777079743,553.688914296288,665.998856501143,0,0,0,4,0,0,vertical,horizontal,horizontal,vertical,vertical,horizontal
1c,21,100160,3,48,176,20,F,NA,variable,homogeneous,5,present,0.564236164093018,1,vertical,vertical,1,1.02352123260498,green,2,5,1050.31493177915,551.343706178981,626.090418184063,786.495193912888,923.626453162816,823.028025320546,1050.31493177915,551.343706178981,831.076682568313,346.900731331463,568.891514305654,492.232343256122,626.090418184063,786.495193912888,0,0,0,4,0,0,0,NaN,vertical,vertical,vertical,horizontal,vertical,none
1c,21,100160,3,49,177,20,F,NA,variable,homogeneous,6,present,0.523015975952148,1,vertical,vertical,1,0.95293436050415,red,3,4,1051.86052685176,560.109211414741,891.383827134052,361.936991243214,708.616172865948,838.063008756786,960.476699717708,798.172220171528,1051.86052685176,560.109211414741,891.383827134052,361.936991243214,639.523300282292,401.827779828472,548.13947314824,639.890788585259,0,0,4,0,0,0,vertical,vertical,vertical,vertical,horizontal,horizontal
1c,21,100160,3,50,178,20,F,NA,variable,homogeneous,6,present,0.44194507598877,1,vertical,vertical,1,0.623528957366943,green,3,6,1054.96116226488,595.549636358493,545.03883773512,604.450363641507,676.373546837184,823.028025320546,931.334709102064,818.577661679039,1054.96116226488,595.549636358493,923.626453162816,376.971974679454,668.665290897936,381.422338320961,545.03883773512,604.450363641507,0,0,4,0,0,0,vertical,horizontal,vertical,horizontal,vertical,vertical
1c,21,100160,3,51,179,20,F,NA,variable,homogeneous,5,absent,0.359668016433716,1,vertical,vertical,1,0.835289573669434,red,2,NaN,1054.96116226488,604.450363641507,NaN,NaN,874.554784704298,843.857712770574,1054.96116226488,604.450363641507,883.019879386575,358.892763222174,596.34794493794,446.537169096228,591.116228706307,746.261991269517,0,0,0,4,0,0,0,NaN,horizontal,vertical,vertical,horizontal,horizontal,none
1c,21,100160,3,52,180,20,F,NA,variable,homogeneous,4,present,0.537018060684204,1,vertical,vertical,1,0.705880308151245,green,2,3,992.450942956807,432.704947607421,632.704947607421,407.549057043193,967.295052392579,792.450942956807,992.450942956807,432.704947607421,632.704947607421,407.549057043193,607.549057043193,767.295052392579,0,0,0,0,0,4,0,0,NaN,NaN,horizontal,vertical,horizontal,horizontal,none,none
1c,21,100160,3,53,181,20,F,NA,variable,homogeneous,5,absent,0.449081897735596,1,vertical,vertical,1,0.858818531036377,green,3,NaN,831.076682568313,346.900731331463,NaN,NaN,923.626453162816,823.028025320546,1050.31493177915,551.343706178981,831.076682568313,346.900731331463,568.891514305654,492.232343256122,626.090418184063,786.495193912888,0,0,0,0,4,0,0,NaN,horizontal,horizontal,vertical,horizontal,horizontal,none
1c,21,100160,3,54,182,20,F,NA,variable,homogeneous,4,absent,0.692178964614868,1,vertical,vertical,1,0.705880308151245,green,4,NaN,551.535633479765,542.637481142314,NaN,NaN,742.637481142314,848.464366520235,1048.46436652023,657.362518857686,857.362518857686,351.535633479765,551.535633479765,542.637481142314,0,0,0,0,0,0,0,4,NaN,NaN,horizontal,horizontal,horizontal,vertical,none,none
1c,21,100160,3,55,183,20,F,NA,variable,homogeneous,4,absent,0.974676847457886,1,horizontal,horizontal,1,0.623528957366943,red,1,NaN,734.001143498857,846.311085703712,NaN,NaN,734.001143498857,846.311085703712,1046.31108570371,665.998856501143,865.998856501143,353.688914296288,553.688914296288,534.001143498857,0,0,0,0,4,0,0,0,NaN,NaN,horizontal,vertical,horizontal,vertical,none,none
1c,21,100160,3,56,184,20,F,NA,variable,homogeneous,3,absent,0.69336199760437,1,vertical,vertical,1,0.95293436050415,green,2,NaN,1031.10848569435,707.767656743878,NaN,NaN,591.116228706307,746.261991269517,1031.10848569435,707.767656743878,777.775285599347,345.970351986605,0,0,0,0,0,0,0,4,0,NaN,NaN,NaN,vertical,vertical,horizontal,none,none,none
1c,21,100160,3,57,185,20,F,NA,variable,homogeneous,4,present,0.81714391708374,1,vertical,vertical,1,0.88234748840332,red,2,3,1038.06300875679,508.616172865948,708.616172865948,361.936991243214,891.383827134052,838.063008756786,1038.06300875679,508.616172865948,708.616172865948,361.936991243214,561.936991243214,691.383827134052,0,0,0,0,0,4,0,0,NaN,NaN,vertical,vertical,vertical,horizontal,none,none
1c,21,100160,3,58,186,20,F,NA,variable,homogeneous,5,present,1.63290810585022,1,horizontal,horizontal,1,0.95293436050415,green,1,2,874.554784704298,843.857712770574,1054.96116226488,604.450363641507,874.554784704298,843.857712770574,1054.96116226488,604.450363641507,883.019879386575,358.892763222174,596.34794493794,446.537169096228,591.116228706307,746.261991269517,0,0,4,0,0,0,0,NaN,horizontal,vertical,vertical,horizontal,horizontal,none
1c,21,100160,3,59,187,20,F,NA,variable,homogeneous,3,absent,1.25019884109497,1,vertical,vertical,1,1.03528571128845,red,1,NaN,696.282156015671,832.954091698863,NaN,NaN,696.282156015671,832.954091698863,1053.60308331891,573.345241866748,650.114760665419,393.700666434388,0,0,0,0,0,0,4,0,0,NaN,NaN,NaN,vertical,horizontal,horizontal,none,none,none
1c,21,100160,3,60,188,20,F,NA,variable,homogeneous,5,absent,0.654383182525635,1,horizontal,horizontal,1,0.95293436050415,green,5,NaN,545.621167183745,617.787900804752,NaN,NaN,738.309916622085,847.425410200379,1016.25226451989,735.129412379467,995.341332995339,436.089159529932,704.475318678942,363.568117085469,545.621167183745,617.787900804752,0,0,0,0,0,0,4,NaN,vertical,horizontal,horizontal,vertical,horizontal,none
1c,21,100160,3,61,189,20,F,NA,variable,homogeneous,4,absent,0.915731191635132,1,horizontal,horizontal,1,0.999992275238037,red,3,NaN,907.767656743878,368.891514305654,NaN,NaN,692.232343256122,831.108485694346,1031.10848569435,707.767656743878,907.767656743878,368.891514305654,568.891514305654,492.232343256122,0,0,0,0,0,0,4,0,NaN,NaN,vertical,horizontal,horizontal,horizontal,none,none
1c,21,100160,3,62,190,20,F,NA,variable,homogeneous,4,present,0.610811948776245,1,horizontal,horizontal,1,1.03528571128845,green,4,3,551.535633479765,542.637481142314,857.362518857686,351.535633479765,742.637481142314,848.464366520235,1048.46436652023,657.362518857686,857.362518857686,351.535633479765,551.535633479765,542.637481142314,0,0,0,0,0,0,0,4,NaN,NaN,horizontal,vertical,vertical,horizontal,none,none
1c,21,100160,3,63,191,20,F,NA,variable,homogeneous,6,absent,0.679565906524658,1,horizontal,horizontal,1,0.81176061630249,red,6,NaN,629.371695378491,789.501930496736,NaN,NaN,878.799333565612,842.519411655264,1049.42763818712,653.017481158529,970.628304621509,410.498069503264,721.200666434388,357.480588344736,550.57236181288,546.982518841471,629.371695378491,789.501930496736,0,0,0,0,0,4,vertical,vertical,horizontal,vertical,horizontal,horizontal
1c,21,100160,3,64,192,20,F,NA,variable,homogeneous,4,present,NaN,0,horizontal,none,0,0.81176061630249,green,4,3,591.116228706307,746.261991269517,653.738008730483,391.116228706307,946.261991269517,808.883771293693,1008.88377129369,453.738008730483,653.738008730483,391.116228706307,591.116228706307,746.261991269517,0,0,0,0,0,0,0,4,NaN,NaN,horizontal,horizontal,horizontal,horizontal,none,none
1c,21,100160,4,1,193,20,F,NA,variable,homogeneous,5,present,NaN,0,vertical,none,0,0.729409265518189,red,4,1,696.282156015671,367.045908301137,746.982518841471,849.42763818712,746.982518841471,849.42763818712,1020.83647796503,727.5,989.501930496736,429.371695378491,696.282156015671,367.045908301137,546.39691668109,626.654758133252,0,0,0,0,0,4,0,NaN,vertical,vertical,horizontal,vertical,horizontal,none
1c,21,100160,4,2,194,20,F,NA,variable,homogeneous,3,absent,1.49810004234314,1,horizontal,horizontal,1,0.647057914733887,green,1,NaN,795.549636358493,854.96116226488,NaN,NaN,795.549636358493,854.96116226488,1023.02802532055,476.373546837184,581.422338320961,468.665290897936,0,0,0,0,0,0,4,0,0,NaN,NaN,NaN,horizontal,horizontal,vertical,none,none,none
1c,21,100160,4,3,195,20,F,NA,variable,homogeneous,6,absent,0.713028907775879,1,vertical,vertical,1,0.847054052352905,green,1,NaN,903.717843984329,832.954091698863,NaN,NaN,903.717843984329,832.954091698863,1053.60308331891,626.654758133252,949.885239334581,393.700666434388,696.282156015671,367.045908301137,546.39691668109,573.345241866748,650.114760665419,806.299333565612,4,0,0,0,0,0,vertical,vertical,horizontal,horizontal,horizontal,horizontal
1c,21,100160,4,4,196,20,F,NA,variable,homogeneous,5,present,0.632626056671143,1,horizontal,horizontal,1,0.658822393417358,green,1,2,927.5,820.836477965032,1049.42763818712,546.982518841471,927.5,820.836477965032,1049.42763818712,546.982518841471,826.654758133252,346.39691668109,567.045908301137,496.282156015671,629.371695378491,789.501930496736,0,0,4,0,0,0,0,NaN,horizontal,vertical,horizontal,horizontal,horizontal,none
1c,21,100160,4,5,197,20,F,NA,variable,homogeneous,6,absent,0.869228839874268,1,horizontal,horizontal,1,0.999992275238037,green,6,NaN,545.970351986605,622.224714400653,NaN,NaN,692.232343256122,831.108485694346,946.261991269517,808.883771293693,1054.0296480134,577.775285599347,907.767656743878,368.891514305654,653.738008730483,391.116228706307,545.970351986605,622.224714400653,0,0,0,0,0,4,vertical,vertical,vertical,horizontal,horizontal,horizontal
1c,21,100160,4,6,198,20,F,NA,variable,homogeneous,6,absent,0.888228178024292,1,horizontal,horizontal,1,0.858818531036377,green,5,NaN,567.045908301137,496.282156015671,NaN,NaN,826.654758133252,853.60308331891,1032.95409169886,703.717843984329,1006.29933356561,450.114760665419,773.345241866748,346.39691668109,567.045908301137,496.282156015671,593.700666434388,749.885239334581,0,0,0,0,4,0,vertical,vertical,vertical,horizontal,horizontal,vertical
1c,21,100160,4,7,199,20,F,NA,variable,homogeneous,5,present,0.723904132843018,1,horizontal,horizontal,1,1.09410810470581,green,3,5,1039.62161830041,512.784863451954,554.878267535729,529.712474266665,657.405809614959,811.404581001536,956.993676208043,800.942742169714,1039.62161830041,512.784863451954,791.100628340862,345.155339110131,554.878267535729,529.712474266665,0,0,0,0,4,0,0,NaN,vertical,horizontal,horizontal,vertical,vertical,none
1c,21,100160,4,8,200,20,F,NA,variable,homogeneous,4,present,1.57908201217651,1,horizontal,horizontal,1,0.623528957366943,red,2,1,1053.60308331891,626.654758133252,773.345241866748,853.60308331891,773.345241866748,853.60308331891,1053.60308331891,626.654758133252,826.654758133252,346.39691668109,546.39691668109,573.345241866748,0,0,0,0,0,4,0,0,NaN,NaN,horizontal,horizontal,horizontal,horizontal,none,none
1c,21,100160,4,9,201,20,F,NA,variable,homogeneous,6,present,0.735428094863892,1,horizontal,horizontal,1,0.823525094985962,red,1,4,822.224714400653,854.029648013395,777.775285599347,345.970351986605,822.224714400653,854.029648013395,1031.10848569435,707.767656743878,1008.88377129369,453.738008730483,777.775285599347,345.970351986605,568.891514305654,492.232343256122,591.116228706307,746.261991269517,4,0,0,0,0,0,horizontal,vertical,vertical,horizontal,horizontal,vertical
1c,21,100160,4,10,202,20,F,NA,variable,homogeneous,6,present,1.03099489212036,1,vertical,vertical,1,0.835289573669434,green,3,4,1027.20666366803,484.232422566416,813.345668841951,345.349468637584,786.654331158049,854.650531362416,1013.86099482608,738.882953928832,1027.20666366803,484.232422566416,813.345668841951,345.349468637584,586.139005173917,461.117046071168,572.793336331966,715.767577433584,0,0,4,0,0,0,horizontal,vertical,vertical,vertical,horizontal,horizontal
1c,21,100160,4,11,203,20,F,NA,variable,homogeneous,3,absent,0.725876092910767,1,horizontal,horizontal,1,0.694115829467773,red,2,NaN,949.885239334581,393.700666434388,NaN,NaN,903.717843984329,832.954091698863,949.885239334581,393.700666434388,546.39691668109,573.345241866748,0,0,0,0,0,0,0,4,0,NaN,NaN,NaN,vertical,horizontal,horizontal,none,none,none
1c,21,100160,4,12,204,20,F,NA,variable,homogeneous,3,absent,0.871052026748657,1,vertical,vertical,1,0.74117374420166,red,3,NaN,545.03883773512,595.549636358493,NaN,NaN,923.626453162816,823.028025320546,931.334709102064,381.422338320961,545.03883773512,595.549636358493,0,0,0,0,0,0,0,0,4,NaN,NaN,NaN,horizontal,horizontal,vertical,none,none,none
1c,21,100160,4,13,205,20,F,NA,variable,homogeneous,3,absent,0.553788185119629,1,vertical,vertical,1,0.858818531036377,green,3,NaN,560.378381699593,512.784863451954,NaN,NaN,844.280285305067,851.125977018113,995.341332995339,436.089159529932,560.378381699593,512.784863451954,0,0,0,0,0,0,0,0,4,NaN,NaN,NaN,horizontal,vertical,vertical,none,none,none
1c,21,100160,4,14,206,20,F,NA,variable,homogeneous,5,absent,0.589238882064819,1,vertical,vertical,1,0.6,red,5,NaN,643.006323791957,800.942742169714,NaN,NaN,942.594190385041,811.404581001536,1045.12173246427,529.712474266665,808.899371659138,345.155339110131,560.378381699593,512.784863451954,643.006323791957,800.942742169714,0,0,0,0,0,0,4,NaN,horizontal,horizontal,horizontal,horizontal,vertical,none
1c,21,100160,4,15,207,20,F,NA,variable,homogeneous,3,present,0.642889976501465,1,horizontal,horizontal,1,0.88234748840332,green,2,3,1020.83647796503,472.5,579.163522034968,472.5,800,855,1020.83647796503,472.5,579.163522034968,472.5,0,0,0,0,0,0,0,4,0,NaN,NaN,NaN,vertical,horizontal,horizontal,none,none,none
1c,21,100160,4,16,208,20,F,NA,variable,homogeneous,5,present,0.608623027801514,1,vertical,vertical,1,0.635293436050415,green,3,5,935.129412379467,383.747735480111,563.568117085469,695.524681321058,817.787900804752,854.378832816255,1047.42541020038,661.690083377915,935.129412379467,383.747735480111,636.089159529932,404.658667004661,563.568117085469,695.524681321058,0,0,0,0,4,0,0,NaN,vertical,horizontal,vertical,vertical,vertical,none
1c,21,100160,4,17,209,20,F,NA,variable,homogeneous,5,absent,0.765535831451416,1,horizontal,horizontal,1,1.02352123260498,red,1,NaN,712.784863451954,839.621618300407,NaN,NaN,712.784863451954,839.621618300407,1000.94274216971,756.993676208043,1011.40458100154,457.40580961496,729.712474266665,354.878267535729,545.155339110131,591.100628340862,0,0,4,0,0,0,0,NaN,horizontal,vertical,vertical,vertical,vertical,none
1c,21,100160,4,18,210,20,F,NA,variable,homogeneous,3,absent,0.70293402671814,1,horizontal,horizontal,1,0.694115829467773,green,3,NaN,556.142287229426,674.554784704298,NaN,NaN,986.495193912888,773.909581815937,857.362518857686,351.535633479765,556.142287229426,674.554784704298,0,0,0,0,0,0,0,0,4,NaN,NaN,NaN,vertical,vertical,horizontal,none,none,none
1c,21,100160,4,19,211,20,F,NA,variable,homogeneous,5,absent,0.82038402557373,1,horizontal,horizontal,1,0.776467180252075,green,2,NaN,1029.19248180629,711.784642431215,NaN,NaN,764.510859255183,852.518357529101,1029.19248180629,711.784642431215,977.137884467044,416.568350913644,680.284751489598,374.848363820974,548.874022981887,644.280285305067,0,0,0,4,0,0,0,NaN,vertical,horizontal,vertical,vertical,horizontal,none
1c,21,100160,4,20,212,20,F,NA,variable,homogeneous,5,absent,0.743550062179565,1,vertical,vertical,1,0.74117374420166,green,2,NaN,1032.95409169886,703.717843984329,NaN,NaN,773.345241866748,853.60308331891,1032.95409169886,703.717843984329,970.628304621509,410.498069503264,672.5,379.163522034968,550.57236181288,653.017481158529,0,0,0,4,0,0,0,NaN,horizontal,vertical,vertical,horizontal,vertical,none
1c,21,100160,4,21,213,20,F,NA,variable,homogeneous,4,absent,0.68826699256897,1,horizontal,horizontal,1,0.870583009719849,red,2,NaN,1023.02802532055,723.626453162816,NaN,NaN,676.373546837184,823.028025320546,1023.02802532055,723.626453162816,923.626453162816,376.971974679454,576.971974679454,476.373546837184,0,0,0,0,0,4,0,0,NaN,NaN,horizontal,horizontal,vertical,vertical,none,none
1c,21,100160,4,22,214,20,F,NA,variable,homogeneous,4,present,NaN,0,vertical,none,0,0.776467180252075,red,3,4,721.200666434388,357.480588344736,557.480588344736,678.799333565612,878.799333565612,842.519411655264,1042.51941165526,521.200666434388,721.200666434388,357.480588344736,557.480588344736,678.799333565612,0,0,0,0,0,0,4,0,NaN,NaN,horizontal,horizontal,vertical,horizontal,none,none
1c,21,100160,4,23,215,20,F,NA,variable,homogeneous,5,absent,1.08243417739868,1,horizontal,horizontal,1,0.81176061630249,red,5,NaN,551.535633479765,657.362518857686,NaN,NaN,777.775285599347,854.029648013395,1034.72873763037,699.636437764765,967.295052392579,407.549057043193,668.665290897936,381.422338320961,551.535633479765,657.362518857686,0,0,0,0,0,0,4,NaN,vertical,vertical,vertical,horizontal,horizontal,none
1c,21,100160,4,24,216,20,F,NA,variable,homogeneous,4,present,1.31767201423645,1,vertical,vertical,1,1.07057914733887,green,3,4,646.537169096228,396.34794493794,596.34794493794,753.462830903772,953.462830903772,803.65205506206,1003.65205506206,446.537169096228,646.537169096228,396.34794493794,596.34794493794,753.462830903772,0,0,0,0,0,0,4,0,NaN,NaN,vertical,vertical,vertical,horizontal,none,none
1c,21,100160,4,25,217,20,F,NA,variable,homogeneous,5,absent,0.991431951522827,1,horizontal,horizontal,1,0.964698839187622,green,1,NaN,791.100628340862,854.844660889869,NaN,NaN,791.100628340862,854.844660889869,1039.62161830041,687.215136548046,956.993676208043,399.057257830286,657.405809614959,388.595418998464,554.878267535729,670.287525733335,0,0,4,0,0,0,0,NaN,horizontal,horizontal,horizontal,vertical,horizontal,none
1c,21,100160,4,26,218,20,F,NA,variable,homogeneous,5,present,0.911584854125977,1,vertical,vertical,1,0.999992275238037,red,4,1,629.371695378491,410.498069503264,826.654758133252,853.60308331891,826.654758133252,853.60308331891,1049.42763818712,653.017481158529,927.5,379.163522034968,629.371695378491,410.498069503264,567.045908301137,703.717843984329,0,0,0,0,0,4,0,NaN,horizontal,horizontal,horizontal,vertical,vertical,none
1c,21,100160,4,27,219,20,F,NA,variable,homogeneous,3,present,0.618556022644043,1,horizontal,horizontal,1,0.623528957366943,red,1,3,599.057257830286,756.993676208043,764.510859255183,347.4816424709,599.057257830286,756.993676208043,1036.43188291453,695.524681321058,764.510859255183,347.4816424709,0,0,0,0,0,0,4,0,0,NaN,NaN,NaN,horizontal,vertical,horizontal,none,none,none
1c,21,100160,4,28,220,20,F,NA,variable,homogeneous,6,absent,0.669837951660156,1,vertical,vertical,1,0.941169881820679,red,6,NaN,639.523300282292,798.172220171528,NaN,NaN,891.383827134052,838.063008756786,1051.86052685176,639.890788585259,960.476699717708,401.827779828472,708.616172865948,361.936991243214,548.13947314824,560.109211414741,639.523300282292,798.172220171528,0,0,0,0,0,4,vertical,horizontal,horizontal,horizontal,horizontal,vertical
1c,21,100160,4,29,221,20,F,NA,variable,homogeneous,4,absent,0.912753105163574,1,vertical,vertical,1,1.0588146686554,red,3,NaN,848.656293821019,349.685068220846,NaN,NaN,751.343706178981,850.314931779154,1050.31493177915,648.656293821019,848.656293821019,349.685068220846,549.685068220846,551.343706178981,0,0,0,0,0,0,4,0,NaN,NaN,horizontal,vertical,vertical,vertical,none,none
1c,21,100160,4,30,222,20,F,NA,variable,homogeneous,6,present,0.703850030899048,1,vertical,vertical,1,1.03528571128845,red,4,6,848.656293821019,349.685068220846,558.892763222174,683.019879386575,751.343706178981,850.314931779154,992.450942956807,767.295052392579,1041.10723677783,516.980120613425,848.656293821019,349.685068220846,607.549057043193,432.704947607421,558.892763222174,683.019879386575,0,0,0,4,0,0,horizontal,horizontal,horizontal,vertical,horizontal,horizontal
1c,21,100160,4,31,223,20,F,NA,variable,homogeneous,4,absent,0.576828002929688,0,horizontal,vertical,1,0.941169881820679,green,2,NaN,1054.37883281626,582.212099195248,NaN,NaN,817.787900804752,854.378832816255,1054.37883281626,582.212099195248,782.212099195248,345.621167183745,545.621167183745,617.787900804752,0,0,0,0,0,4,0,0,NaN,NaN,horizontal,horizontal,vertical,vertical,none,none
1c,21,100160,4,32,224,20,F,NA,variable,homogeneous,3,present,1.15518593788147,1,vertical,vertical,1,0.929405403137207,red,1,2,1006.29933356561,749.885239334581,826.654758133252,346.39691668109,1006.29933356561,749.885239334581,826.654758133252,346.39691668109,567.045908301137,703.717843984329,0,0,0,0,0,0,4,0,0,NaN,NaN,NaN,vertical,vertical,horizontal,none,none,none
1c,21,100160,4,33,225,20,F,NA,variable,homogeneous,4,present,0.560802936553955,1,vertical,vertical,1,0.917640924453735,green,2,3,1046.31108570371,534.001143498857,734.001143498857,353.688914296288,865.998856501143,846.311085703712,1046.31108570371,534.001143498857,734.001143498857,353.688914296288,553.688914296288,665.998856501143,0,0,0,0,0,4,0,0,NaN,NaN,horizontal,vertical,vertical,horizontal,none,none
1c,21,100160,4,34,226,20,F,NA,variable,homogeneous,6,absent,0.535377979278564,1,horizontal,horizontal,1,0.964698839187622,red,5,NaN,547.481642470899,564.510859255183,NaN,NaN,895.524681321058,836.431882914531,1052.5183575291,635.489140744817,956.993676208043,399.057257830286,704.475318678942,363.568117085469,547.481642470899,564.510859255183,643.006323791957,800.942742169714,0,0,0,0,4,0,horizontal,horizontal,horizontal,horizontal,horizontal,vertical
1c,21,100160,4,35,227,20,F,NA,variable,homogeneous,6,absent,0.881870985031128,0,horizontal,vertical,1,0.776467180252075,red,1,NaN,716.980120613425,841.107236777826,NaN,NaN,716.980120613425,841.107236777826,967.295052392579,792.450942956807,1050.31493177915,551.343706178981,883.019879386575,358.892763222174,632.704947607421,407.549057043193,549.685068220846,648.656293821019,4,0,0,0,0,0,horizontal,vertical,vertical,vertical,horizontal,vertical
1c,21,100160,4,36,228,20,F,NA,variable,homogeneous,5,present,0.656094074249268,0,horizontal,vertical,1,1.01175675392151,red,3,2,857.362518857686,351.535633479765,1054.0296480134,577.775285599347,899.636437764765,834.728737630372,1054.0296480134,577.775285599347,857.362518857686,351.535633479765,581.422338320961,468.665290897936,607.549057043193,767.295052392579,0,0,0,0,4,0,0,NaN,horizontal,horizontal,horizontal,horizontal,horizontal,none
1c,21,100160,4,37,229,20,F,NA,variable,homogeneous,6,absent,0.597285985946655,1,vertical,vertical,1,0.999992275238037,green,6,NaN,643.006323791957,800.942742169714,NaN,NaN,895.524681321058,836.431882914531,1052.5183575291,635.489140744817,956.993676208043,399.057257830286,704.475318678942,363.568117085469,547.481642470899,564.510859255183,643.006323791957,800.942742169714,0,0,0,0,0,4,vertical,horizontal,vertical,vertical,vertical,vertical
1c,21,100160,4,38,230,20,F,NA,variable,homogeneous,3,absent,1.4364230632782,1,horizontal,horizontal,1,0.752938222885132,red,3,NaN,567.045908301137,496.282156015671,NaN,NaN,826.654758133252,853.60308331891,1006.29933356561,450.114760665419,567.045908301137,496.282156015671,0,0,0,0,0,0,0,0,4,NaN,NaN,NaN,horizontal,vertical,horizontal,none,none,none
1c,21,100160,4,39,231,20,F,NA,variable,homogeneous,5,absent,0.613846063613892,1,vertical,vertical,1,1.02352123260498,green,4,NaN,613.504806087112,426.090418184063,NaN,NaN,848.656293821019,850.314931779154,1053.09926866854,631.076682568313,907.767656743878,368.891514305654,613.504806087112,426.090418184063,576.971974679454,723.626453162816,0,0,0,0,0,4,0,NaN,horizontal,horizontal,vertical,vertical,vertical,none
1c,21,100160,4,40,232,20,F,NA,variable,homogeneous,6,present,0.726834058761597,1,horizontal,horizontal,1,0.623528957366943,green,5,1,545.970351986605,577.775285599347,907.767656743878,831.108485694346,907.767656743878,831.108485694346,1054.0296480134,622.224714400653,946.261991269517,391.116228706307,692.232343256122,368.891514305654,545.970351986605,577.775285599347,653.738008730483,808.883771293693,0,0,0,0,4,0,horizontal,vertical,vertical,vertical,horizontal,vertical
1c,21,100160,4,41,233,20,F,NA,variable,homogeneous,4,absent,0.632348775863647,1,horizontal,horizontal,1,0.74117374420166,green,2,NaN,1036.43188291453,695.524681321058,NaN,NaN,704.475318678942,836.431882914531,1036.43188291453,695.524681321058,895.524681321058,363.568117085469,563.568117085469,504.475318678942,0,0,0,0,0,4,0,0,NaN,NaN,horizontal,horizontal,vertical,horizontal,none,none
1c,21,100160,4,42,234,20,F,NA,variable,homogeneous,4,present,0.638428926467896,1,vertical,vertical,1,1.07057914733887,red,3,2,700.363562235235,365.271262369628,1034.72873763037,500.363562235235,899.636437764765,834.728737630372,1034.72873763037,500.363562235235,700.363562235235,365.271262369628,565.271262369628,699.636437764765,0,0,0,0,0,0,4,0,NaN,NaN,vertical,vertical,vertical,horizontal,none,none
1c,21,100160,4,43,235,20,F,NA,variable,homogeneous,6,present,0.774925947189331,1,vertical,vertical,1,0.976463317871094,green,5,1,545.03883773512,595.549636358493,923.626453162816,823.028025320546,923.626453162816,823.028025320546,1054.96116226488,604.450363641507,931.334709102064,381.422338320961,676.373546837184,376.971974679454,545.03883773512,595.549636358493,668.665290897936,818.577661679039,0,0,0,0,4,0,horizontal,horizontal,vertical,horizontal,vertical,horizontal
1c,21,100160,4,44,236,20,F,NA,variable,homogeneous,3,present,0.677561044692993,1,vertical,vertical,1,0.95293436050415,green,2,1,1020.83647796503,472.5,800,855,800,855,1020.83647796503,472.5,579.163522034968,472.5,0,0,0,0,0,0,0,4,0,NaN,NaN,NaN,horizontal,vertical,horizontal,none,none,none
1c,21,100160,4,45,237,20,F,NA,variable,homogeneous,3,absent,0.485529184341431,1,vertical,vertical,1,0.917640924453735,red,3,NaN,684.232422566416,372.793336331966,NaN,NaN,661.117046071168,813.860994826083,1054.65053136242,613.345668841951,684.232422566416,372.793336331966,0,0,0,0,0,0,0,0,4,NaN,NaN,NaN,vertical,horizontal,vertical,none,none,none
1c,21,100160,4,46,238,20,F,NA,variable,homogeneous,3,present,0.984927892684937,1,horizontal,horizontal,1,1.07057914733887,red,3,2,553.688914296288,665.998856501143,865.998856501143,353.688914296288,980.31222920257,780.31222920257,865.998856501143,353.688914296288,553.688914296288,665.998856501143,0,0,0,0,0,0,0,0,4,NaN,NaN,NaN,vertical,vertical,horizontal,none,none,none
1c,21,100160,4,47,239,20,F,NA,variable,homogeneous,3,present,1.06912112236023,1,vertical,vertical,1,1.02352123260498,red,2,1,1029.19248180629,488.215357568785,782.212099195248,854.378832816255,782.212099195248,854.378832816255,1029.19248180629,488.215357568785,588.595418998464,457.40580961496,0,0,0,0,0,0,0,4,0,NaN,NaN,NaN,horizontal,vertical,horizontal,none,none,none
1c,21,100160,4,48,240,20,F,NA,variable,homogeneous,6,present,0.700742959976196,1,vertical,vertical,1,0.694115829467773,red,2,3,970.628304621509,789.501930496736,1049.42763818712,546.982518841471,721.200666434388,842.519411655264,970.628304621509,789.501930496736,1049.42763818712,546.982518841471,878.799333565612,357.480588344736,629.371695378491,410.498069503264,550.57236181288,653.017481158529,0,4,0,0,0,0,horizontal,vertical,horizontal,vertical,horizontal,vertical
1c,21,100160,4,49,241,20,F,NA,variable,homogeneous,5,present,0.640542984008789,1,horizontal,horizontal,1,1.08234362602234,red,4,5,596.34794493794,446.537169096228,591.116228706307,746.261991269517,874.554784704298,843.857712770574,1054.96116226488,604.450363641507,883.019879386575,358.892763222174,596.34794493794,446.537169096228,591.116228706307,746.261991269517,0,0,0,0,0,4,0,NaN,vertical,vertical,horizontal,horizontal,vertical,none
1c,21,100160,4,50,242,20,F,NA,variable,homogeneous,4,present,0.602954864501953,1,horizontal,horizontal,1,1.07057914733887,green,2,3,1045.12173246427,670.287525733335,870.287525733335,354.878267535729,729.712474266665,845.121732464271,1045.12173246427,670.287525733335,870.287525733335,354.878267535729,554.878267535729,529.712474266665,0,0,0,0,0,4,0,0,NaN,NaN,horizontal,horizontal,horizontal,vertical,none,none
1c,21,100160,4,51,243,20,F,NA,variable,homogeneous,6,present,0.705118179321289,1,horizontal,horizontal,1,1.09410810470581,red,5,1,558.892763222174,516.980120613425,848.656293821019,850.314931779154,848.656293821019,850.314931779154,1041.10723677783,683.019879386575,992.450942956807,432.704947607421,751.343706178981,349.685068220846,558.892763222174,516.980120613425,607.549057043193,767.295052392579,0,0,0,0,4,0,vertical,vertical,vertical,vertical,horizontal,vertical
1c,21,100160,4,52,244,20,F,NA,variable,homogeneous,3,present,0.501437187194824,1,horizontal,horizontal,1,0.894111967086792,green,2,1,998.172220171528,439.523300282291,839.890788585259,851.86052685176,839.890788585259,851.86052685176,998.172220171528,439.523300282291,561.936991243214,508.616172865948,0,0,0,0,0,0,0,4,0,NaN,NaN,NaN,vertical,horizontal,vertical,none,none,none
1c,21,100160,4,53,245,20,F,NA,variable,homogeneous,4,absent,0.716078042984009,1,horizontal,horizontal,1,0.623528957366943,red,3,NaN,751.343706178981,349.685068220846,NaN,NaN,848.656293821019,850.314931779154,1050.31493177915,551.343706178981,751.343706178981,349.685068220846,549.685068220846,648.656293821019,0,0,0,0,0,0,4,0,NaN,NaN,horizontal,vertical,horizontal,vertical,none,none
