experiment,subject,uniqueID,block,trial,trial_cumulative,age,gender,color_cond_blocking,color_history,shape_type,set_size,distractor,rt,acc,target_orient,response_key,response_made,iti,target_color,target_item,distractor_item,target_X,target_Y,distractor_X,distractor_Y,item1_X,item1_Y,item2_X,item2_Y,item3_X,item3_Y,item4_X,item4_Y,item5_X,item5_Y,item6_X,item6_Y,item1_shape,item2_shape,item3_shape,item4_shape,item5_shape,item6_shape,item1_line,item2_line,item3_line,item4_line,item5_line,item6_line
1c,22,100165,1,1,1,21,F,NA,variable,homogeneous,5,present,1.09986710548401,1,horizontal,horizontal,1,0.952936188379923,green,2,1,1048.46436652023,657.362518857686,822.224714400653,854.029648013395,822.224714400653,854.029648013395,1048.46436652023,657.362518857686,931.334709102064,381.422338320961,632.704947607421,407.549057043193,565.271262369628,699.636437764765,0,0,0,4,0,0,0,NaN,vertical,horizontal,vertical,horizontal,horizontal,none
1c,22,100165,1,2,2,21,F,NA,variable,homogeneous,3,absent,1.33109593391418,1,horizontal,horizontal,1,0.870584411091275,red,2,NaN,1047.42541020038,538.309916622085,NaN,NaN,729.712474266665,845.121732464271,1047.42541020038,538.309916622085,622.862115532956,416.568350913644,0,0,0,0,0,0,0,4,0,NaN,NaN,NaN,vertical,horizontal,horizontal,none,none,none
1c,22,100165,1,3,3,21,F,NA,variable,homogeneous,5,present,1.79259300231934,1,vertical,vertical,1,0.717645396126641,red,3,4,1031.10848569435,492.232343256122,768.923317431687,346.900731331463,676.373546837184,823.028025320546,973.909581815937,786.495193912888,1031.10848569435,492.232343256122,768.923317431687,346.900731331463,549.685068220846,551.343706178981,0,0,0,0,4,0,0,NaN,vertical,horizontal,vertical,vertical,horizontal,none
1c,22,100165,1,4,4,21,F,NA,variable,homogeneous,6,absent,0.859225988388062,1,horizontal,horizontal,1,0.941171648767259,green,4,NaN,915.767577433584,372.793336331966,NaN,NaN,684.232422566416,827.206663668034,938.882953928832,813.860994826083,1054.65053136242,586.654331158049,915.767577433584,372.793336331966,661.117046071168,386.139005173917,545.349468637584,613.345668841951,0,0,0,4,0,0,horizontal,vertical,horizontal,horizontal,horizontal,vertical
1c,22,100165,1,5,5,21,F,NA,variable,homogeneous,3,present,1.15343284606934,1,vertical,vertical,1,0.635293618837992,green,2,3,977.137884467044,416.568350913644,552.574589799621,538.309916622085,870.287525733335,845.121732464271,977.137884467044,416.568350913644,552.574589799621,538.309916622085,0,0,0,0,0,0,0,4,0,NaN,NaN,NaN,horizontal,vertical,vertical,none,none,none
1c,22,100165,1,6,6,21,F,NA,variable,homogeneous,6,absent,1.25774002075195,1,horizontal,horizontal,1,0.658822698063321,red,6,NaN,554.878267535729,670.287525733335,NaN,NaN,738.309916622085,847.425410200379,983.431649086356,777.137884467044,1045.12173246427,529.712474266665,861.690083377915,352.574589799621,616.568350913644,422.862115532956,554.878267535729,670.287525733335,0,0,0,0,0,4,horizontal,vertical,horizontal,horizontal,vertical,horizontal
1c,22,100165,1,7,7,21,F,NA,variable,homogeneous,3,absent,0.994822978973389,1,vertical,vertical,1,0.976465267605252,red,2,NaN,831.076682568313,346.900731331463,NaN,NaN,1003.65205506206,753.462830903772,831.076682568313,346.900731331463,565.271262369628,699.636437764765,0,0,0,0,0,0,0,4,0,NaN,NaN,NaN,vertical,vertical,vertical,none,none,none
1c,22,100165,1,8,8,21,F,NA,variable,homogeneous,5,absent,0.579430818557739,1,vertical,vertical,1,1.02352342605591,red,3,NaN,813.345668841951,345.349468637584,NaN,NaN,938.882953928832,813.860994826083,1046.31108570371,534.001143498857,813.345668841951,345.349468637584,561.936991243214,508.616172865948,639.523300282292,798.172220171528,0,0,0,0,4,0,0,NaN,vertical,vertical,vertical,vertical,vertical,none
1c,22,100165,1,9,9,21,F,NA,variable,homogeneous,6,absent,1.41331696510315,1,horizontal,horizontal,1,0.705880856513977,green,1,NaN,861.690083377915,847.425410200379,NaN,NaN,861.690083377915,847.425410200379,1045.12173246427,670.287525733335,983.431649086356,422.862115532956,738.309916622085,352.574589799621,554.878267535729,529.712474266665,616.568350913644,777.137884467044,4,0,0,0,0,0,horizontal,vertical,horizontal,vertical,horizontal,horizontal
1c,22,100165,1,10,10,21,F,NA,variable,homogeneous,3,present,1.32161498069763,1,horizontal,horizontal,1,0.788232633802626,red,1,3,813.345668841951,854.650531362416,572.793336331966,484.232422566416,813.345668841951,854.650531362416,1013.86099482608,461.117046071168,572.793336331966,484.232422566416,0,0,0,0,0,0,4,0,0,NaN,NaN,NaN,horizontal,vertical,vertical,none,none,none
1c,22,100165,1,11,11,21,F,NA,variable,homogeneous,6,absent,1.28115701675415,1,vertical,vertical,1,0.647058158450656,green,2,NaN,1000.94274216971,756.993676208043,NaN,NaN,764.510859255183,852.518357529101,1000.94274216971,756.993676208043,1036.43188291453,504.475318678942,835.489140744817,347.4816424709,599.057257830286,443.006323791957,563.568117085469,695.524681321058,0,4,0,0,0,0,horizontal,vertical,horizontal,horizontal,horizontal,vertical
1c,22,100165,1,12,12,21,F,NA,variable,homogeneous,6,present,0.840720891952515,1,horizontal,horizontal,1,0.882348950703939,red,1,4,791.100628340862,854.844660889869,808.899371659138,345.155339110131,791.100628340862,854.844660889869,1016.25226451989,735.129412379467,1025.15163617903,480.284751489598,808.899371659138,345.155339110131,583.747735480111,464.870587620533,574.848363820974,719.715248510402,4,0,0,0,0,0,horizontal,vertical,horizontal,vertical,vertical,horizontal
1c,22,100165,1,13,13,21,F,NA,variable,homogeneous,4,present,0.985739946365356,0,vertical,horizontal,1,0.79999717341529,red,3,1,804.450363641507,345.03883773512,795.549636358493,854.96116226488,795.549636358493,854.96116226488,1054.96116226488,604.450363641507,804.450363641507,345.03883773512,545.03883773512,595.549636358493,0,0,0,0,0,0,4,0,NaN,NaN,horizontal,horizontal,vertical,vertical,none,none
1c,22,100165,1,14,14,21,F,NA,variable,homogeneous,3,present,0.886560916900635,1,horizontal,horizontal,1,0.847055331865946,green,3,2,629.371695378491,410.498069503264,1049.42763818712,546.982518841471,721.200666434388,842.519411655264,1049.42763818712,546.982518841471,629.371695378491,410.498069503264,0,0,0,0,0,0,0,0,4,NaN,NaN,NaN,horizontal,horizontal,horizontal,none,none,none
1c,22,100165,1,15,15,21,F,NA,variable,homogeneous,3,present,1.74533915519714,1,vertical,vertical,1,1.04705250528124,red,3,2,591.116228706307,453.738008730483,1031.10848569435,492.232343256122,777.775285599347,854.029648013395,1031.10848569435,492.232343256122,591.116228706307,453.738008730483,0,0,0,0,0,0,0,0,4,NaN,NaN,NaN,horizontal,vertical,vertical,none,none,none
1c,22,100165,1,16,16,21,F,NA,variable,homogeneous,6,present,1.67284297943115,1,vertical,vertical,1,1.02352342605591,red,1,5,760.109211414741,851.86052685176,601.827779828472,439.523300282291,760.109211414741,851.86052685176,998.172220171528,760.476699717708,1038.06300875679,508.616172865948,839.890788585259,348.13947314824,601.827779828472,439.523300282291,561.936991243214,691.383827134052,4,0,0,0,0,0,vertical,vertical,horizontal,vertical,horizontal,horizontal
1c,22,100165,1,17,17,21,F,NA,variable,homogeneous,5,absent,1.09468913078308,1,vertical,vertical,1,0.99999434683058,green,3,NaN,970.628304621509,410.498069503264,NaN,NaN,773.345241866748,853.60308331891,1032.95409169886,703.717843984329,970.628304621509,410.498069503264,672.5,379.163522034968,550.57236181288,653.017481158529,0,0,0,0,4,0,0,NaN,vertical,vertical,vertical,vertical,vertical,none
1c,22,100165,1,18,18,21,F,NA,variable,homogeneous,4,absent,1.22074198722839,1,horizontal,horizontal,1,0.99999434683058,green,1,NaN,622.862115532956,783.431649086356,NaN,NaN,622.862115532956,783.431649086356,983.431649086356,777.137884467044,977.137884467044,416.568350913644,616.568350913644,422.862115532956,0,0,0,0,4,0,0,0,NaN,NaN,horizontal,vertical,horizontal,vertical,none,none
1c,22,100165,1,19,19,21,F,NA,variable,homogeneous,5,absent,1.01460194587708,1,vertical,vertical,1,1.07058158450656,red,4,NaN,646.537169096228,396.34794493794,NaN,NaN,804.450363641507,854.96116226488,1043.85771277057,674.554784704298,946.261991269517,391.116228706307,646.537169096228,396.34794493794,558.892763222174,683.019879386575,0,0,0,0,0,4,0,NaN,horizontal,horizontal,horizontal,vertical,horizontal,none
1c,22,100165,1,20,20,21,F,NA,variable,homogeneous,3,present,1.37084197998047,1,vertical,vertical,1,0.788232633802626,green,2,3,1027.20666366803,484.232422566416,586.139005173917,461.117046071168,786.654331158049,854.650531362416,1027.20666366803,484.232422566416,586.139005173917,461.117046071168,0,0,0,0,0,0,0,4,0,NaN,NaN,NaN,horizontal,vertical,horizontal,none,none,none
1c,22,100165,1,21,21,21,F,NA,variable,homogeneous,3,absent,0.667884111404419,1,horizontal,horizontal,1,1.07058158450656,green,3,NaN,557.480588344736,521.200666434388,NaN,NaN,853.017481158529,849.42763818712,989.501930496736,429.371695378491,557.480588344736,521.200666434388,0,0,0,0,0,0,0,0,4,NaN,NaN,NaN,vertical,vertical,horizontal,none,none,none
1c,22,100165,1,22,22,21,F,NA,variable,homogeneous,4,absent,0.724369049072266,0,vertical,horizontal,1,0.752939014964634,red,4,NaN,547.481642470899,635.489140744817,NaN,NaN,835.489140744817,852.518357529101,1052.5183575291,564.510859255183,764.510859255183,347.4816424709,547.481642470899,635.489140744817,0,0,0,0,0,0,0,4,NaN,NaN,vertical,vertical,vertical,vertical,none,none
1c,22,100165,1,23,23,21,F,NA,variable,homogeneous,5,absent,0.781763076782227,1,vertical,vertical,1,0.741174475351969,green,5,NaN,551.535633479765,657.362518857686,NaN,NaN,777.775285599347,854.029648013395,1034.72873763037,699.636437764765,967.295052392579,407.549057043193,668.665290897936,381.422338320961,551.535633479765,657.362518857686,0,0,0,0,0,0,4,NaN,vertical,horizontal,vertical,horizontal,vertical,none
1c,22,100165,1,24,24,21,F,NA,variable,homogeneous,6,absent,0.867447137832642,1,vertical,vertical,1,0.694116316901313,red,4,NaN,751.343706178981,349.685068220846,NaN,NaN,848.656293821019,850.314931779154,1041.10723677783,683.019879386575,992.450942956807,432.704947607421,751.343706178981,349.685068220846,558.892763222174,516.980120613425,607.549057043193,767.295052392579,0,0,0,4,0,0,vertical,horizontal,horizontal,vertical,horizontal,vertical
1c,22,100165,1,25,25,21,F,NA,variable,homogeneous,3,present,0.891453981399536,1,horizontal,horizontal,1,0.729409935739305,red,2,3,949.885239334581,393.700666434388,546.39691668109,573.345241866748,903.717843984329,832.954091698863,949.885239334581,393.700666434388,546.39691668109,573.345241866748,0,0,0,0,0,0,0,4,0,NaN,NaN,NaN,horizontal,horizontal,vertical,none,none,none
1c,22,100165,1,26,26,21,F,NA,variable,homogeneous,5,present,0.856104135513306,1,horizontal,horizontal,1,0.741174475351969,green,1,4,848.656293821019,850.314931779154,613.504806087112,426.090418184063,848.656293821019,850.314931779154,1053.09926866854,631.076682568313,907.767656743878,368.891514305654,613.504806087112,426.090418184063,576.971974679454,723.626453162816,0,0,4,0,0,0,0,NaN,horizontal,horizontal,horizontal,horizontal,vertical,none
1c,22,100165,1,27,27,21,F,NA,variable,homogeneous,5,absent,0.788983821868896,1,horizontal,horizontal,1,0.976465267605252,red,4,NaN,768.923317431687,346.900731331463,NaN,NaN,676.373546837184,823.028025320546,973.909581815937,786.495193912888,1031.10848569435,492.232343256122,768.923317431687,346.900731331463,549.685068220846,551.343706178981,0,0,0,0,0,4,0,NaN,vertical,horizontal,vertical,horizontal,vertical,none
1c,22,100165,1,28,28,21,F,NA,variable,homogeneous,5,present,0.624281883239746,1,vertical,vertical,1,0.964700727992588,green,1,5,891.383827134052,838.063008756786,601.827779828472,760.476699717708,891.383827134052,838.063008756786,1054.65053136242,586.654331158049,865.998856501143,353.688914296288,586.139005173917,461.117046071168,601.827779828472,760.476699717708,0,0,4,0,0,0,0,NaN,vertical,vertical,vertical,horizontal,vertical,none
1c,22,100165,1,29,29,21,F,NA,variable,homogeneous,4,present,0.840289831161499,1,horizontal,horizontal,1,0.764703554577298,red,1,4,768.923317431687,853.099268668537,546.900731331463,568.923317431687,768.923317431687,853.099268668537,1053.09926866854,631.076682568313,831.076682568313,346.900731331463,546.900731331463,568.923317431687,0,0,0,0,4,0,0,0,NaN,NaN,horizontal,vertical,horizontal,horizontal,none,none
1c,22,100165,1,30,30,21,F,NA,variable,homogeneous,4,absent,0.78715991973877,1,horizontal,horizontal,1,0.894113490316603,red,1,NaN,848.656293821019,850.314931779154,NaN,NaN,848.656293821019,850.314931779154,1050.31493177915,551.343706178981,751.343706178981,349.685068220846,549.685068220846,648.656293821019,0,0,0,0,4,0,0,0,NaN,NaN,horizontal,vertical,horizontal,vertical,none,none
1c,22,100165,1,31,31,21,F,NA,variable,homogeneous,6,absent,0.72767186164856,1,horizontal,horizontal,1,0.811761713027954,red,5,NaN,596.34794493794,446.537169096228,NaN,NaN,768.923317431687,853.099268668537,1003.65205506206,753.462830903772,1034.72873763037,500.363562235235,831.076682568313,346.900731331463,596.34794493794,446.537169096228,565.271262369628,699.636437764765,0,0,0,0,4,0,vertical,horizontal,horizontal,vertical,horizontal,vertical
1c,22,100165,1,32,32,21,F,NA,variable,homogeneous,3,absent,0.745790958404541,1,vertical,vertical,1,0.788232633802626,green,1,NaN,692.232343256122,831.108485694346,NaN,NaN,692.232343256122,831.108485694346,1054.0296480134,577.775285599347,653.738008730483,391.116228706307,0,0,0,0,0,0,4,0,0,NaN,NaN,NaN,vertical,horizontal,horizontal,none,none,none
1c,22,100165,1,33,33,21,F,NA,variable,homogeneous,6,present,1.17527008056641,1,vertical,vertical,1,0.929407109154595,green,5,1,567.045908301137,496.282156015671,826.654758133252,853.60308331891,826.654758133252,853.60308331891,1032.95409169886,703.717843984329,1006.29933356561,450.114760665419,773.345241866748,346.39691668109,567.045908301137,496.282156015671,593.700666434388,749.885239334581,0,0,0,0,4,0,horizontal,horizontal,horizontal,vertical,vertical,vertical
1c,22,100165,1,34,34,21,F,NA,variable,homogeneous,4,absent,0.687534093856812,1,horizontal,horizontal,1,0.611764539612664,red,4,NaN,549.685068220846,648.656293821019,NaN,NaN,848.656293821019,850.314931779154,1050.31493177915,551.343706178981,751.343706178981,349.685068220846,549.685068220846,648.656293821019,0,0,0,0,0,0,0,4,NaN,NaN,vertical,vertical,horizontal,horizontal,none,none
1c,22,100165,1,35,35,21,F,NA,variable,homogeneous,4,absent,0.96877908706665,1,vertical,vertical,1,0.776468094189962,green,2,NaN,1054.0296480134,577.775285599347,NaN,NaN,822.224714400653,854.029648013395,1054.0296480134,577.775285599347,777.775285599347,345.970351986605,545.970351986605,622.224714400653,0,0,0,0,0,4,0,0,NaN,NaN,horizontal,vertical,horizontal,vertical,none,none
1c,22,100165,1,36,36,21,F,NA,variable,homogeneous,4,present,0.598018884658813,1,vertical,vertical,1,1.08234612411923,green,1,4,629.371695378491,789.501930496736,610.498069503264,429.371695378491,629.371695378491,789.501930496736,989.501930496736,770.628304621509,970.628304621509,410.498069503264,610.498069503264,429.371695378491,0,0,0,0,4,0,0,0,NaN,NaN,vertical,vertical,vertical,vertical,none,none
1c,22,100165,1,37,37,21,F,NA,variable,homogeneous,4,absent,0.486557960510254,1,vertical,vertical,1,0.823526252640618,red,2,NaN,980.31222920257,419.68777079743,NaN,NaN,980.31222920257,780.31222920257,980.31222920257,419.68777079743,619.68777079743,419.68777079743,619.68777079743,780.31222920257,0,0,0,0,0,4,0,0,NaN,NaN,vertical,vertical,horizontal,vertical,none,none
1c,22,100165,1,38,38,21,F,NA,variable,homogeneous,5,present,0.659897089004517,1,vertical,vertical,1,0.764703554577298,green,1,2,891.383827134052,838.063008756786,1054.65053136242,586.654331158049,891.383827134052,838.063008756786,1054.65053136242,586.654331158049,865.998856501143,353.688914296288,586.139005173917,461.117046071168,601.827779828472,760.476699717708,0,0,4,0,0,0,0,NaN,vertical,vertical,vertical,vertical,horizontal,none
1c,22,100165,1,39,39,21,F,NA,variable,homogeneous,4,present,1.02178621292114,1,horizontal,horizontal,1,1.02352342605591,red,2,4,1054.37883281626,582.212099195248,545.621167183745,617.787900804752,817.787900804752,854.378832816255,1054.37883281626,582.212099195248,782.212099195248,345.621167183745,545.621167183745,617.787900804752,0,0,0,0,0,4,0,0,NaN,NaN,vertical,horizontal,vertical,horizontal,none,none
1c,22,100165,1,40,40,21,F,NA,variable,homogeneous,5,present,0.668873071670532,1,horizontal,horizontal,1,0.929407109154595,red,5,4,550.57236181288,546.982518841471,773.345241866748,346.39691668109,672.5,820.836477965032,970.628304621509,789.501930496736,1032.95409169886,496.282156015671,773.345241866748,346.39691668109,550.57236181288,546.982518841471,0,0,0,0,0,0,4,NaN,horizontal,horizontal,vertical,vertical,horizontal,none
1c,22,100165,1,41,41,21,F,NA,variable,homogeneous,4,absent,0.588418006896973,1,vertical,vertical,1,0.905878029929267,green,1,NaN,755.719714694933,851.125977018113,NaN,NaN,755.719714694933,851.125977018113,1051.12597701811,644.280285305067,844.280285305067,348.874022981887,548.874022981887,555.719714694933,0,0,0,0,4,0,0,0,NaN,NaN,vertical,vertical,vertical,vertical,none,none
1c,22,100165,1,42,42,21,F,NA,variable,homogeneous,3,present,1.66395282745361,1,vertical,vertical,1,0.788232633802626,red,1,2,992.450942956807,767.295052392579,848.656293821019,349.685068220846,992.450942956807,767.295052392579,848.656293821019,349.685068220846,558.892763222174,683.019879386575,0,0,0,0,0,0,4,0,0,NaN,NaN,NaN,vertical,vertical,vertical,none,none,none
1c,22,100165,1,43,43,21,F,NA,variable,homogeneous,4,absent,0.750345945358276,1,horizontal,horizontal,1,0.635293618837992,green,2,NaN,1032.95409169886,496.282156015671,NaN,NaN,903.717843984329,832.954091698863,1032.95409169886,496.282156015671,696.282156015671,367.045908301137,567.045908301137,703.717843984329,0,0,0,0,0,4,0,0,NaN,NaN,vertical,horizontal,vertical,horizontal,none,none
1c,22,100165,1,44,44,21,F,NA,variable,homogeneous,3,absent,1.16623592376709,1,vertical,vertical,1,0.847055331865946,red,3,NaN,688.215357568785,370.807518193712,NaN,NaN,657.405809614959,811.404581001536,1054.37883281626,617.787900804752,688.215357568785,370.807518193712,0,0,0,0,0,0,0,0,4,NaN,NaN,NaN,vertical,vertical,vertical,none,none,none
1c,22,100165,1,45,45,21,F,NA,variable,homogeneous,6,absent,1.33775401115417,1,vertical,vertical,1,0.788232633802626,red,3,NaN,1054.37883281626,582.212099195248,NaN,NaN,688.215357568785,829.192481806288,942.594190385041,811.404581001536,1054.37883281626,582.212099195248,911.784642431215,370.807518193712,657.405809614959,388.595418998464,545.621167183745,617.787900804752,0,0,4,0,0,0,vertical,horizontal,vertical,horizontal,vertical,horizontal
1c,22,100165,1,46,46,21,F,NA,variable,homogeneous,5,absent,0.817882776260376,1,horizontal,horizontal,1,0.658822698063321,green,3,NaN,817.787900804752,345.621167183745,NaN,NaN,935.129412379467,816.252264519889,1047.42541020038,538.309916622085,817.787900804752,345.621167183745,563.568117085469,504.475318678942,636.089159529932,795.341332995339,0,0,0,0,4,0,0,NaN,horizontal,horizontal,horizontal,horizontal,horizontal,none
1c,22,100165,1,47,47,21,F,NA,variable,homogeneous,3,present,0.637090921401978,1,horizontal,horizontal,1,0.941171648767259,green,3,2,661.117046071168,386.139005173917,1054.65053136242,586.654331158049,684.232422566416,827.206663668034,1054.65053136242,586.654331158049,661.117046071168,386.139005173917,0,0,0,0,0,0,0,0,4,NaN,NaN,NaN,vertical,horizontal,horizontal,none,none,none
1c,22,100165,1,48,48,21,F,NA,variable,homogeneous,4,present,0.737332105636597,1,vertical,vertical,1,0.764703554577298,green,4,3,558.892763222174,516.980120613425,883.019879386575,358.892763222174,716.980120613425,841.107236777826,1041.10723677783,683.019879386575,883.019879386575,358.892763222174,558.892763222174,516.980120613425,0,0,0,0,0,0,0,4,NaN,NaN,vertical,horizontal,horizontal,vertical,none,none
1c,22,100165,1,49,49,21,F,NA,variable,homogeneous,3,absent,0.580962896347046,1,vertical,vertical,1,1.04705250528124,green,3,NaN,548.874022981887,555.719714694933,NaN,NaN,887.215136548046,839.621618300407,963.910840470068,404.658667004661,548.874022981887,555.719714694933,0,0,0,0,0,0,0,0,4,NaN,NaN,NaN,vertical,vertical,vertical,none,none,none
1c,22,100165,1,50,50,21,F,NA,variable,homogeneous,6,present,0.804190158843994,1,vertical,vertical,1,0.764703554577298,green,6,5,546.900731331463,631.076682568313,646.537169096228,396.34794493794,700.363562235235,834.728737630372,953.462830903772,803.65205506206,1053.09926866854,568.923317431687,899.636437764765,365.271262369628,646.537169096228,396.34794493794,546.900731331463,631.076682568313,0,0,0,0,0,4,horizontal,vertical,horizontal,vertical,vertical,vertical
1c,22,100165,1,51,51,21,F,NA,variable,homogeneous,6,present,1.19475483894348,1,vertical,vertical,1,0.917642569541931,red,2,3,1052.5183575291,635.489140744817,956.993676208043,399.057257830286,895.524681321058,836.431882914531,1052.5183575291,635.489140744817,956.993676208043,399.057257830286,704.475318678942,363.568117085469,547.481642470899,564.510859255183,643.006323791957,800.942742169714,0,4,0,0,0,0,horizontal,vertical,vertical,horizontal,horizontal,vertical
1c,22,100165,1,52,52,21,F,NA,variable,homogeneous,5,absent,0.918349027633667,1,horizontal,horizontal,1,0.788232633802626,red,4,NaN,696.282156015671,367.045908301137,NaN,NaN,746.982518841471,849.42763818712,1020.83647796503,727.5,989.501930496736,429.371695378491,696.282156015671,367.045908301137,546.39691668109,626.654758133252,0,0,0,0,0,4,0,NaN,vertical,horizontal,vertical,horizontal,horizontal,none
1c,22,100165,1,53,53,21,F,NA,variable,homogeneous,3,absent,0.737930059432983,1,horizontal,horizontal,1,0.635293618837992,green,2,NaN,1043.85771277057,525.445215295702,NaN,NaN,742.637481142314,848.464366520235,1043.85771277057,525.445215295702,613.504806087112,426.090418184063,0,0,0,0,0,0,0,4,0,NaN,NaN,NaN,vertical,horizontal,vertical,none,none,none
1c,22,100165,1,54,54,21,F,NA,variable,homogeneous,3,absent,0.592481136322021,1,horizontal,horizontal,1,0.788232633802626,red,2,NaN,1006.29933356561,450.114760665419,NaN,NaN,826.654758133252,853.60308331891,1006.29933356561,450.114760665419,567.045908301137,496.282156015671,0,0,0,0,0,0,0,4,0,NaN,NaN,NaN,horizontal,horizontal,horizontal,none,none,none
1c,22,100165,1,55,55,21,F,NA,variable,homogeneous,6,present,0.725203037261963,1,horizontal,horizontal,1,0.835290792253282,green,1,2,742.637481142314,848.464366520235,986.495193912888,773.909581815937,742.637481142314,848.464366520235,986.495193912888,773.909581815937,1043.85771277057,525.445215295702,857.362518857686,351.535633479765,613.504806087112,426.090418184063,556.142287229426,674.554784704298,4,0,0,0,0,0,horizontal,horizontal,vertical,vertical,vertical,vertical
1c,22,100165,1,56,56,21,F,NA,variable,homogeneous,4,present,0.697996854782104,1,horizontal,horizontal,1,0.905878029929267,green,3,2,639.523300282292,401.827779828472,998.172220171528,439.523300282291,960.476699717708,798.172220171528,998.172220171528,439.523300282291,639.523300282292,401.827779828472,601.827779828472,760.476699717708,0,0,0,0,0,0,4,0,NaN,NaN,vertical,horizontal,horizontal,vertical,none,none
1c,22,100165,1,57,57,21,F,NA,variable,homogeneous,6,present,0.591210126876831,1,horizontal,horizontal,1,0.752939014964634,green,5,2,556.142287229426,525.445215295702,1043.85771277057,674.554784704298,857.362518857686,848.464366520235,1043.85771277057,674.554784704298,986.495193912888,426.090418184063,742.637481142314,351.535633479765,556.142287229426,525.445215295702,613.504806087112,773.909581815937,0,0,0,0,4,0,horizontal,horizontal,vertical,horizontal,horizontal,horizontal
1c,22,100165,1,58,58,21,F,NA,variable,homogeneous,5,absent,0.484408855438232,1,horizontal,horizontal,1,0.658822698063321,green,5,NaN,546.39691668109,573.345241866748,NaN,NaN,696.282156015671,832.954091698863,989.501930496736,770.628304621509,1020.83647796503,472.5,746.982518841471,350.57236181288,546.39691668109,573.345241866748,0,0,0,0,0,0,4,NaN,vertical,horizontal,vertical,vertical,horizontal,none
1c,22,100165,1,59,59,21,F,NA,variable,homogeneous,6,absent,0.777652025222778,1,vertical,vertical,1,0.764703554577298,green,2,NaN,1049.42763818712,653.017481158529,NaN,NaN,878.799333565612,842.519411655264,1049.42763818712,653.017481158529,970.628304621509,410.498069503264,721.200666434388,357.480588344736,550.57236181288,546.982518841471,629.371695378491,789.501930496736,0,4,0,0,0,0,vertical,vertical,vertical,horizontal,vertical,horizontal
1c,22,100165,1,60,60,21,F,NA,variable,homogeneous,5,present,0.944238901138306,1,vertical,vertical,1,0.941171648767259,red,4,1,708.616172865948,361.936991243214,734.001143498857,846.311085703712,734.001143498857,846.311085703712,1013.86099482608,738.882953928832,998.172220171528,439.523300282291,708.616172865948,361.936991243214,545.349468637584,613.345668841951,0,0,0,0,0,4,0,NaN,horizontal,horizontal,vertical,vertical,horizontal,none
1c,22,100165,1,61,61,21,F,NA,variable,homogeneous,5,present,0.773361921310425,1,horizontal,horizontal,1,0.905878029929267,red,5,1,626.090418184063,786.495193912888,923.626453162816,823.028025320546,923.626453162816,823.028025320546,1050.31493177915,551.343706178981,831.076682568313,346.900731331463,568.891514305654,492.232343256122,626.090418184063,786.495193912888,0,0,0,0,0,0,4,NaN,vertical,vertical,horizontal,horizontal,horizontal,none
1c,22,100165,1,62,62,21,F,NA,variable,homogeneous,6,present,0.635621070861816,1,horizontal,horizontal,1,0.729409935739305,red,5,1,558.892763222174,516.980120613425,848.656293821019,850.314931779154,848.656293821019,850.314931779154,1041.10723677783,683.019879386575,992.450942956807,432.704947607421,751.343706178981,349.685068220846,558.892763222174,516.980120613425,607.549057043193,767.295052392579,0,0,0,0,4,0,horizontal,vertical,horizontal,vertical,horizontal,horizontal
1c,22,100165,1,63,63,21,F,NA,variable,homogeneous,4,present,0.958453893661499,1,horizontal,horizontal,1,0.894113490316603,green,1,3,895.524681321058,836.431882914531,704.475318678942,363.568117085469,895.524681321058,836.431882914531,1036.43188291453,504.475318678942,704.475318678942,363.568117085469,563.568117085469,695.524681321058,0,0,0,0,4,0,0,0,NaN,NaN,horizontal,vertical,vertical,horizontal,none,none
1c,22,100165,1,64,64,21,F,NA,variable,homogeneous,4,present,0.821658849716187,1,vertical,vertical,1,1.01175888644324,red,3,4,977.137884467044,416.568350913644,616.568350913644,422.862115532956,622.862115532956,783.431649086356,983.431649086356,777.137884467044,977.137884467044,416.568350913644,616.568350913644,422.862115532956,0,0,0,0,0,0,4,0,NaN,NaN,vertical,vertical,vertical,horizontal,none,none
1c,22,100165,2,1,65,21,F,NA,variable,homogeneous,4,absent,1.12707304954529,1,horizontal,horizontal,1,0.764703554577298,green,2,NaN,1047.42541020038,538.309916622085,NaN,NaN,861.690083377915,847.425410200379,1047.42541020038,538.309916622085,738.309916622085,352.574589799621,552.574589799621,661.690083377915,0,0,0,0,0,4,0,0,NaN,NaN,vertical,horizontal,vertical,horizontal,none,none
1c,22,100165,2,2,66,21,F,NA,variable,homogeneous,6,present,1.07537293434143,1,vertical,vertical,1,1.08234612411923,red,1,3,746.982518841471,849.42763818712,1042.51941165526,521.200666434388,746.982518841471,849.42763818712,989.501930496736,770.628304621509,1042.51941165526,521.200666434388,853.017481158529,350.57236181288,610.498069503264,429.371695378491,557.480588344736,678.799333565612,4,0,0,0,0,0,vertical,horizontal,vertical,vertical,horizontal,horizontal
1c,22,100165,2,3,67,21,F,NA,variable,homogeneous,5,absent,0.705537080764771,1,horizontal,horizontal,1,1.02352342605591,red,4,NaN,574.848363820974,480.284751489598,NaN,NaN,911.784642431215,829.192481806288,1052.5183575291,564.510859255183,844.280285305067,348.874022981887,574.848363820974,480.284751489598,616.568350913644,777.137884467044,0,0,0,0,0,4,0,NaN,horizontal,vertical,vertical,horizontal,vertical,none
1c,22,100165,2,4,68,21,F,NA,variable,homogeneous,3,present,0.910089015960693,0,horizontal,vertical,1,0.717645396126641,red,2,1,1006.29933356561,450.114760665419,826.654758133252,853.60308331891,826.654758133252,853.60308331891,1006.29933356561,450.114760665419,567.045908301137,496.282156015671,0,0,0,0,0,0,0,4,0,NaN,NaN,NaN,horizontal,horizontal,vertical,none,none,none
1c,22,100165,2,5,69,21,F,NA,variable,homogeneous,5,absent,0.725259780883789,1,vertical,vertical,1,0.835290792253282,red,1,NaN,712.784863451954,839.621618300407,NaN,NaN,712.784863451954,839.621618300407,1000.94274216971,756.993676208043,1011.40458100154,457.40580961496,729.712474266665,354.878267535729,545.155339110131,591.100628340862,0,0,4,0,0,0,0,NaN,vertical,horizontal,horizontal,horizontal,horizontal,none
1c,22,100165,2,6,70,21,F,NA,variable,homogeneous,3,present,0.903630971908569,1,horizontal,horizontal,1,0.988229807217916,green,3,1,646.537169096228,396.34794493794,700.363562235235,834.728737630372,700.363562235235,834.728737630372,1053.09926866854,568.923317431687,646.537169096228,396.34794493794,0,0,0,0,0,0,0,0,4,NaN,NaN,NaN,vertical,horizontal,horizontal,none,none,none
1c,22,100165,2,7,71,21,F,NA,variable,homogeneous,5,absent,0.6071457862854,1,vertical,vertical,1,0.870584411091275,green,1,NaN,650.114760665419,806.299333565612,NaN,NaN,650.114760665419,806.299333565612,949.885239334581,806.299333565612,1042.51941165526,521.200666434388,800,345,557.480588344736,521.200666434388,0,0,4,0,0,0,0,NaN,vertical,horizontal,vertical,vertical,vertical,none
1c,22,100165,2,8,72,21,F,NA,variable,homogeneous,5,present,1.28539299964905,1,vertical,vertical,1,0.694116316901313,red,1,2,887.215136548046,839.621618300407,1054.84466088987,591.100628340862,887.215136548046,839.621618300407,1054.84466088987,591.100628340862,870.287525733335,354.878267535729,588.595418998464,457.40580961496,599.057257830286,756.993676208043,0,0,4,0,0,0,0,NaN,vertical,horizontal,vertical,vertical,horizontal,none
1c,22,100165,2,9,73,21,F,NA,variable,homogeneous,6,present,0.596040010452271,1,horizontal,horizontal,1,0.835290792253282,green,6,1,664.870587620533,816.252264519889,919.715248510402,825.151636179026,919.715248510402,825.151636179026,1054.84466088987,608.899371659138,935.129412379467,383.747735480111,680.284751489598,374.848363820974,545.155339110131,591.100628340862,664.870587620533,816.252264519889,0,0,0,0,0,4,horizontal,horizontal,vertical,vertical,vertical,horizontal
1c,22,100165,2,10,74,21,F,NA,variable,homogeneous,6,present,0.973476886749268,1,vertical,vertical,1,1.07058158450656,red,3,6,963.910840470068,404.658667004661,636.089159529932,795.341332995339,887.215136548046,839.621618300407,1051.12597701811,644.280285305067,963.910840470068,404.658667004661,712.784863451954,360.378381699593,548.874022981887,555.719714694933,636.089159529932,795.341332995339,0,0,4,0,0,0,vertical,vertical,vertical,horizontal,horizontal,vertical
1c,22,100165,2,11,75,21,F,NA,variable,homogeneous,5,present,1.31649589538574,1,horizontal,horizontal,1,0.776468094189962,red,2,5,1039.62161830041,687.215136548046,554.878267535729,670.287525733335,791.100628340862,854.844660889869,1039.62161830041,687.215136548046,956.993676208043,399.057257830286,657.405809614959,388.595418998464,554.878267535729,670.287525733335,0,0,0,4,0,0,0,NaN,horizontal,horizontal,vertical,horizontal,vertical,none
1c,22,100165,2,12,76,21,F,NA,variable,homogeneous,4,absent,0.680294036865234,1,vertical,vertical,1,0.858819871478611,red,4,NaN,581.422338320961,468.665290897936,NaN,NaN,668.665290897936,818.577661679039,1018.57766167904,731.334709102064,931.334709102064,381.422338320961,581.422338320961,468.665290897936,0,0,0,0,0,0,0,4,NaN,NaN,vertical,vertical,horizontal,vertical,none,none
1c,22,100165,2,13,77,21,F,NA,variable,homogeneous,4,absent,0.814948081970215,1,vertical,vertical,1,0.647058158450656,green,1,NaN,865.998856501143,846.311085703712,NaN,NaN,865.998856501143,846.311085703712,1046.31108570371,534.001143498857,734.001143498857,353.688914296288,553.688914296288,665.998856501143,0,0,0,0,4,0,0,0,NaN,NaN,vertical,horizontal,horizontal,vertical,none,none
1c,22,100165,2,14,78,21,F,NA,variable,homogeneous,3,absent,0.64680814743042,1,vertical,vertical,1,0.776468094189962,green,2,NaN,1032.95409169886,496.282156015671,NaN,NaN,773.345241866748,853.60308331891,1032.95409169886,496.282156015671,593.700666434388,450.114760665419,0,0,0,0,0,0,0,4,0,NaN,NaN,NaN,vertical,vertical,horizontal,none,none,none
1c,22,100165,2,15,79,21,F,NA,variable,homogeneous,6,absent,0.590075016021729,1,vertical,vertical,1,0.694116316901313,green,4,NaN,813.345668841951,345.349468637584,NaN,NaN,786.654331158049,854.650531362416,1013.86099482608,738.882953928832,1027.20666366803,484.232422566416,813.345668841951,345.349468637584,586.139005173917,461.117046071168,572.793336331966,715.767577433584,0,0,0,4,0,0,vertical,vertical,vertical,vertical,vertical,vertical
1c,22,100165,2,16,80,21,F,NA,variable,homogeneous,6,present,0.535189867019653,1,horizontal,horizontal,1,1.04705250528124,green,6,5,599.057257830286,756.993676208043,563.568117085469,504.475318678942,835.489140744817,852.518357529101,1036.43188291453,695.524681321058,1000.94274216971,443.006323791957,764.510859255183,347.4816424709,563.568117085469,504.475318678942,599.057257830286,756.993676208043,0,0,0,0,0,4,vertical,horizontal,vertical,horizontal,vertical,horizontal
1c,22,100165,2,17,81,21,F,NA,variable,homogeneous,6,absent,0.602945804595947,1,horizontal,horizontal,1,0.847055331865946,red,5,NaN,626.090418184063,413.504806087112,NaN,NaN,725.445215295702,843.857712770574,973.909581815937,786.495193912888,1048.46436652023,542.637481142314,874.554784704298,356.142287229426,626.090418184063,413.504806087112,551.535633479765,657.362518857686,0,0,0,0,4,0,horizontal,vertical,horizontal,vertical,horizontal,horizontal
1c,22,100165,2,18,82,21,F,NA,variable,homogeneous,3,present,1.51111006736755,1,vertical,vertical,1,0.6,red,3,1,586.139005173917,461.117046071168,786.654331158049,854.650531362416,786.654331158049,854.650531362416,1027.20666366803,484.232422566416,586.139005173917,461.117046071168,0,0,0,0,0,0,0,0,4,NaN,NaN,NaN,horizontal,vertical,vertical,none,none,none
1c,22,100165,2,19,83,21,F,NA,variable,homogeneous,6,absent,0.764423131942749,1,vertical,vertical,1,0.941171648767259,green,5,NaN,599.057257830286,443.006323791957,NaN,NaN,764.510859255183,852.518357529101,1000.94274216971,756.993676208043,1036.43188291453,504.475318678942,835.489140744817,347.4816424709,599.057257830286,443.006323791957,563.568117085469,695.524681321058,0,0,0,0,4,0,horizontal,vertical,horizontal,vertical,vertical,horizontal
1c,22,100165,2,20,84,21,F,NA,variable,homogeneous,5,absent,0.849678039550781,1,horizontal,horizontal,1,1.08234612411923,red,1,NaN,927.5,820.836477965032,NaN,NaN,927.5,820.836477965032,1049.42763818712,546.982518841471,826.654758133252,346.39691668109,567.045908301137,496.282156015671,629.371695378491,789.501930496736,0,0,4,0,0,0,0,NaN,horizontal,vertical,horizontal,vertical,vertical,none
1c,22,100165,2,21,85,21,F,NA,variable,homogeneous,3,absent,0.904634952545166,1,vertical,vertical,1,0.894113490316603,red,1,NaN,742.637481142314,848.464366520235,NaN,NaN,742.637481142314,848.464366520235,1043.85771277057,525.445215295702,613.504806087112,426.090418184063,0,0,0,0,0,0,4,0,0,NaN,NaN,NaN,vertical,horizontal,horizontal,none,none,none
1c,22,100165,2,22,86,21,F,NA,variable,homogeneous,3,absent,0.532873868942261,0,horizontal,vertical,1,0.694116316901313,green,3,NaN,581.422338320961,468.665290897936,NaN,NaN,795.549636358493,854.96116226488,1023.02802532055,476.373546837184,581.422338320961,468.665290897936,0,0,0,0,0,0,0,0,4,NaN,NaN,NaN,vertical,vertical,horizontal,none,none,none
1c,22,100165,2,23,87,21,F,NA,variable,homogeneous,3,present,1.10626602172852,1,horizontal,horizontal,1,0.717645396126641,red,3,1,545,600,927.5,820.836477965032,927.5,820.836477965032,927.5,379.163522034968,545,600,0,0,0,0,0,0,0,0,4,NaN,NaN,NaN,horizontal,horizontal,horizontal,none,none,none
1c,22,100165,2,24,88,21,F,NA,variable,homogeneous,3,present,0.544740915298462,1,horizontal,horizontal,1,0.611764539612664,green,3,1,777.775285599347,345.970351986605,591.116228706307,746.261991269517,591.116228706307,746.261991269517,1031.10848569435,707.767656743878,777.775285599347,345.970351986605,0,0,0,0,0,0,0,0,4,NaN,NaN,NaN,horizontal,vertical,horizontal,none,none,none
1c,22,100165,2,25,89,21,F,NA,variable,homogeneous,5,present,0.903759956359863,1,vertical,vertical,1,0.6,green,3,2,998.172220171528,439.523300282291,1013.86099482608,738.882953928832,734.001143498857,846.311085703712,1013.86099482608,738.882953928832,998.172220171528,439.523300282291,708.616172865948,361.936991243214,545.349468637584,613.345668841951,0,0,0,0,4,0,0,NaN,vertical,vertical,vertical,horizontal,vertical,none
1c,22,100165,2,26,90,21,F,NA,variable,homogeneous,5,present,0.951338052749634,1,vertical,vertical,1,0.870584411091275,red,2,5,973.909581815937,786.495193912888,549.685068220846,551.343706178981,676.373546837184,823.028025320546,973.909581815937,786.495193912888,1031.10848569435,492.232343256122,768.923317431687,346.900731331463,549.685068220846,551.343706178981,0,0,0,4,0,0,0,NaN,horizontal,vertical,horizontal,vertical,vertical,none
1c,22,100165,2,27,91,21,F,NA,variable,homogeneous,5,present,1.22709202766418,1,vertical,vertical,1,1.02352342605591,green,3,5,804.450363641507,345.03883773512,646.537169096228,803.65205506206,946.261991269517,808.883771293693,1043.85771277057,525.445215295702,804.450363641507,345.03883773512,558.892763222174,516.980120613425,646.537169096228,803.65205506206,0,0,0,0,4,0,0,NaN,vertical,horizontal,vertical,horizontal,vertical,none
1c,22,100165,2,28,92,21,F,NA,variable,homogeneous,4,present,0.516135931015015,1,vertical,vertical,1,0.611764539612664,red,2,4,1013.86099482608,738.882953928832,586.139005173917,461.117046071168,661.117046071168,813.860994826083,1013.86099482608,738.882953928832,938.882953928832,386.139005173917,586.139005173917,461.117046071168,0,0,0,0,0,4,0,0,NaN,NaN,vertical,vertical,horizontal,horizontal,none,none
1c,22,100165,2,29,93,21,F,NA,variable,homogeneous,6,absent,0.682190179824829,1,horizontal,horizontal,1,0.976465267605252,red,1,NaN,721.200666434388,842.519411655264,NaN,NaN,721.200666434388,842.519411655264,970.628304621509,789.501930496736,1049.42763818712,546.982518841471,878.799333565612,357.480588344736,629.371695378491,410.498069503264,550.57236181288,653.017481158529,4,0,0,0,0,0,horizontal,horizontal,horizontal,vertical,vertical,vertical
1c,22,100165,2,30,94,21,F,NA,variable,homogeneous,5,absent,0.808919906616211,1,vertical,vertical,1,0.835290792253282,green,5,NaN,546.39691668109,626.654758133252,NaN,NaN,746.982518841471,849.42763818712,1020.83647796503,727.5,989.501930496736,429.371695378491,696.282156015671,367.045908301137,546.39691668109,626.654758133252,0,0,0,0,0,0,4,NaN,vertical,vertical,horizontal,vertical,vertical,none
1c,22,100165,2,31,95,21,F,NA,variable,homogeneous,6,absent,0.450315952301025,1,vertical,vertical,1,0.858819871478611,red,6,NaN,553.688914296288,665.998856501143,NaN,NaN,734.001143498857,846.311085703712,980.31222920257,780.31222920257,1046.31108570371,534.001143498857,865.998856501143,353.688914296288,619.68777079743,419.68777079743,553.688914296288,665.998856501143,0,0,0,0,0,4,horizontal,vertical,horizontal,horizontal,vertical,vertical
1c,22,100165,2,32,96,21,F,NA,variable,homogeneous,3,absent,0.712002992630005,1,horizontal,horizontal,1,1.02352342605591,red,2,NaN,1049.42763818712,653.017481158529,NaN,NaN,629.371695378491,789.501930496736,1049.42763818712,653.017481158529,721.200666434388,357.480588344736,0,0,0,0,0,0,0,4,0,NaN,NaN,NaN,horizontal,horizontal,horizontal,none,none,none
1c,22,100165,2,33,97,21,F,NA,variable,homogeneous,4,present,0.452090978622437,1,vertical,vertical,1,1.09411066373189,red,3,2,927.5,379.163522034968,1020.83647796503,727.5,672.5,820.836477965032,1020.83647796503,727.5,927.5,379.163522034968,579.163522034968,472.5,0,0,0,0,0,0,4,0,NaN,NaN,horizontal,horizontal,vertical,vertical,none,none
1c,22,100165,2,34,98,21,F,NA,variable,homogeneous,3,absent,1.4109160900116,1,horizontal,horizontal,1,1.07058158450656,red,1,NaN,591.116228706307,746.261991269517,NaN,NaN,591.116228706307,746.261991269517,1031.10848569435,707.767656743878,777.775285599347,345.970351986605,0,0,0,0,0,0,4,0,0,NaN,NaN,NaN,horizontal,vertical,horizontal,none,none,none
1c,22,100165,2,35,99,21,F,NA,variable,homogeneous,4,absent,0.77802300453186,1,vertical,vertical,1,0.929407109154595,green,1,NaN,700.363562235235,834.728737630372,NaN,NaN,700.363562235235,834.728737630372,1034.72873763037,699.636437764765,899.636437764765,365.271262369628,565.271262369628,500.363562235235,0,0,0,0,4,0,0,0,NaN,NaN,vertical,vertical,vertical,horizontal,none,none
1c,22,100165,2,36,100,21,F,NA,variable,homogeneous,4,absent,0.777965068817139,1,horizontal,horizontal,1,0.811761713027954,green,3,NaN,646.537169096228,396.34794493794,NaN,NaN,953.462830903772,803.65205506206,1003.65205506206,446.537169096228,646.537169096228,396.34794493794,596.34794493794,753.462830903772,0,0,0,0,0,0,4,0,NaN,NaN,vertical,horizontal,horizontal,horizontal,none,none
1c,22,100165,2,37,101,21,F,NA,variable,homogeneous,5,absent,1.29564690589905,1,vertical,vertical,1,0.894113490316603,red,5,NaN,616.568350913644,777.137884467044,NaN,NaN,911.784642431215,829.192481806288,1052.5183575291,564.510859255183,844.280285305067,348.874022981887,574.848363820974,480.284751489598,616.568350913644,777.137884467044,0,0,0,0,0,0,4,NaN,horizontal,vertical,horizontal,vertical,vertical,none
1c,22,100165,2,38,102,21,F,NA,variable,homogeneous,6,present,1.18308711051941,0,horizontal,vertical,1,1.07058158450656,red,6,5,565.271262369628,699.636437764765,596.34794493794,446.537169096228,768.923317431687,853.099268668537,1003.65205506206,753.462830903772,1034.72873763037,500.363562235235,831.076682568313,346.900731331463,596.34794493794,446.537169096228,565.271262369628,699.636437764765,0,0,0,0,0,4,vertical,vertical,vertical,vertical,horizontal,horizontal
1c,22,100165,2,39,103,21,F,NA,variable,homogeneous,5,present,1.57897591590881,1,horizontal,horizontal,1,0.99999434683058,green,4,5,581.422338320961,468.665290897936,607.549057043193,767.295052392579,899.636437764765,834.728737630372,1054.0296480134,577.775285599347,857.362518857686,351.535633479765,581.422338320961,468.665290897936,607.549057043193,767.295052392579,0,0,0,0,0,4,0,NaN,horizontal,vertical,horizontal,horizontal,vertical,none
1c,22,100165,2,40,104,21,F,NA,variable,homogeneous,6,absent,0.958065986633301,1,vertical,vertical,1,0.752939014964634,red,1,NaN,696.282156015671,832.954091698863,NaN,NaN,696.282156015671,832.954091698863,949.885239334581,806.299333565612,1053.60308331891,573.345241866748,903.717843984329,367.045908301137,650.114760665419,393.700666434388,546.39691668109,626.654758133252,4,0,0,0,0,0,vertical,horizontal,vertical,horizontal,vertical,horizontal
1c,22,100165,2,41,105,21,F,NA,variable,homogeneous,4,present,NaN,0,vertical,none,0,0.835290792253282,green,4,2,551.535633479765,657.362518857686,1048.46436652023,542.637481142314,857.362518857686,848.464366520235,1048.46436652023,542.637481142314,742.637481142314,351.535633479765,551.535633479765,657.362518857686,0,0,0,0,0,0,0,4,NaN,NaN,vertical,horizontal,vertical,vertical,none,none
1c,22,100165,2,42,106,21,F,NA,variable,homogeneous,4,absent,0.731817007064819,1,vertical,vertical,1,1.09411066373189,red,2,NaN,1041.10723677783,683.019879386575,NaN,NaN,716.980120613425,841.107236777826,1041.10723677783,683.019879386575,883.019879386575,358.892763222174,558.892763222174,516.980120613425,0,0,0,0,0,4,0,0,NaN,NaN,horizontal,vertical,vertical,vertical,none,none
1c,22,100165,2,43,107,21,F,NA,variable,homogeneous,5,present,0.823436975479126,1,horizontal,horizontal,1,0.623529079225328,green,3,4,915.767577433584,372.793336331966,619.68777079743,419.68777079743,839.890788585259,851.86052685176,1051.86052685176,639.890788585259,915.767577433584,372.793336331966,619.68777079743,419.68777079743,572.793336331966,715.767577433584,0,0,0,0,4,0,0,NaN,vertical,horizontal,horizontal,horizontal,horizontal,none
1c,22,100165,2,44,108,21,F,NA,variable,homogeneous,4,present,0.535609006881714,1,horizontal,horizontal,1,0.764703554577298,green,3,1,826.654758133252,346.39691668109,773.345241866748,853.60308331891,773.345241866748,853.60308331891,1053.60308331891,626.654758133252,826.654758133252,346.39691668109,546.39691668109,573.345241866748,0,0,0,0,0,0,4,0,NaN,NaN,vertical,horizontal,horizontal,vertical,none,none
1c,22,100165,2,45,109,21,F,NA,variable,homogeneous,3,present,0.543721914291382,1,vertical,vertical,1,0.658822698063321,green,1,3,986.495193912888,773.909581815937,556.142287229426,674.554784704298,986.495193912888,773.909581815937,857.362518857686,351.535633479765,556.142287229426,674.554784704298,0,0,0,0,0,0,4,0,0,NaN,NaN,NaN,vertical,horizontal,horizontal,none,none,none
1c,22,100165,2,46,110,21,F,NA,variable,homogeneous,4,present,1.29061603546143,1,vertical,vertical,1,1.01175888644324,green,2,3,1011.40458100154,457.40580961496,657.405809614959,388.595418998464,942.594190385041,811.404581001536,1011.40458100154,457.40580961496,657.405809614959,388.595418998464,588.595418998464,742.594190385041,0,0,0,0,0,4,0,0,NaN,NaN,vertical,vertical,horizontal,horizontal,none,none
1c,22,100165,2,47,111,21,F,NA,variable,homogeneous,4,absent,0.558058023452759,1,horizontal,horizontal,1,0.870584411091275,red,2,NaN,1013.86099482608,461.117046071168,NaN,NaN,938.882953928832,813.860994826083,1013.86099482608,461.117046071168,661.117046071168,386.139005173917,586.139005173917,738.882953928832,0,0,0,0,0,4,0,0,NaN,NaN,vertical,horizontal,horizontal,vertical,none,none
1c,22,100165,2,48,112,21,F,NA,variable,homogeneous,6,absent,0.535894155502319,0,horizontal,vertical,1,0.929407109154595,green,4,NaN,813.345668841951,345.349468637584,NaN,NaN,786.654331158049,854.650531362416,1013.86099482608,738.882953928832,1027.20666366803,484.232422566416,813.345668841951,345.349468637584,586.139005173917,461.117046071168,572.793336331966,715.767577433584,0,0,0,4,0,0,horizontal,vertical,vertical,horizontal,vertical,vertical
1c,22,100165,2,49,113,21,F,NA,variable,homogeneous,4,present,0.900599002838135,1,horizontal,horizontal,1,0.894113490316603,green,2,1,1023.02802532055,476.373546837184,923.626453162816,823.028025320546,923.626453162816,823.028025320546,1023.02802532055,476.373546837184,676.373546837184,376.971974679454,576.971974679454,723.626453162816,0,0,0,0,0,4,0,0,NaN,NaN,vertical,horizontal,horizontal,vertical,none,none
1c,22,100165,2,50,114,21,F,NA,variable,homogeneous,4,absent,0.555392980575562,1,horizontal,horizontal,1,0.823526252640618,red,3,NaN,795.549636358493,345.03883773512,NaN,NaN,804.450363641507,854.96116226488,1054.96116226488,595.549636358493,795.549636358493,345.03883773512,545.03883773512,604.450363641507,0,0,0,0,0,0,4,0,NaN,NaN,vertical,horizontal,horizontal,horizontal,none,none
1c,22,100165,2,51,115,21,F,NA,variable,homogeneous,5,present,0.3924560546875,1,horizontal,horizontal,1,1.09411066373189,red,3,2,865.998856501143,353.688914296288,1054.65053136242,586.654331158049,891.383827134052,838.063008756786,1054.65053136242,586.654331158049,865.998856501143,353.688914296288,586.139005173917,461.117046071168,601.827779828472,760.476699717708,0,0,0,0,4,0,0,NaN,vertical,vertical,horizontal,vertical,vertical,none
1c,22,100165,2,52,116,21,F,NA,variable,homogeneous,3,absent,0.56153416633606,1,vertical,vertical,1,1.04705250528124,green,2,NaN,1036.43188291453,695.524681321058,NaN,NaN,599.057257830286,756.993676208043,1036.43188291453,695.524681321058,764.510859255183,347.4816424709,0,0,0,0,0,0,0,4,0,NaN,NaN,NaN,vertical,vertical,vertical,none,none,none
1c,22,100165,2,53,117,21,F,NA,variable,homogeneous,3,absent,1.2278470993042,0,horizontal,vertical,1,0.752939014964634,green,2,NaN,1054.65053136242,586.654331158049,NaN,NaN,684.232422566416,827.206663668034,1054.65053136242,586.654331158049,661.117046071168,386.139005173917,0,0,0,0,0,0,0,4,0,NaN,NaN,NaN,vertical,horizontal,horizontal,none,none,none
1c,22,100165,2,54,118,21,F,NA,variable,homogeneous,3,absent,1.48052191734314,1,vertical,vertical,1,0.776468094189962,red,1,NaN,622.862115532956,783.431649086356,NaN,NaN,622.862115532956,783.431649086356,1047.42541020038,661.690083377915,729.712474266665,354.878267535729,0,0,0,0,0,0,4,0,0,NaN,NaN,NaN,vertical,vertical,vertical,none,none,none
1c,22,100165,2,55,119,21,F,NA,variable,homogeneous,4,present,0.728466033935547,1,horizontal,horizontal,1,0.941171648767259,red,1,4,835.489140744817,852.518357529101,547.481642470899,635.489140744817,835.489140744817,852.518357529101,1052.5183575291,564.510859255183,764.510859255183,347.4816424709,547.481642470899,635.489140744817,0,0,0,0,4,0,0,0,NaN,NaN,horizontal,horizontal,vertical,horizontal,none,none
1c,22,100165,2,56,120,21,F,NA,variable,homogeneous,3,present,0.80782413482666,1,vertical,vertical,1,0.835290792253282,green,1,2,899.636437764765,834.728737630372,953.462830903772,396.34794493794,899.636437764765,834.728737630372,953.462830903772,396.34794493794,546.900731331463,568.923317431687,0,0,0,0,0,0,4,0,0,NaN,NaN,NaN,vertical,vertical,horizontal,none,none,none
1c,22,100165,2,57,121,21,F,NA,variable,homogeneous,6,absent,0.654243946075439,1,horizontal,horizontal,1,1.07058158450656,green,5,NaN,560.378381699593,512.784863451954,NaN,NaN,844.280285305067,851.125977018113,1039.62161830041,687.215136548046,995.341332995339,436.089159529932,755.719714694933,348.874022981887,560.378381699593,512.784863451954,604.658667004661,763.910840470068,0,0,0,0,4,0,vertical,horizontal,horizontal,vertical,horizontal,vertical
1c,22,100165,2,58,122,21,F,NA,variable,homogeneous,4,present,0.860687971115112,1,horizontal,horizontal,1,1.07058158450656,red,2,4,1043.85771277057,674.554784704298,556.142287229426,525.445215295702,725.445215295702,843.857712770574,1043.85771277057,674.554784704298,874.554784704298,356.142287229426,556.142287229426,525.445215295702,0,0,0,0,0,4,0,0,NaN,NaN,horizontal,horizontal,horizontal,vertical,none,none
1c,22,100165,2,59,123,21,F,NA,variable,homogeneous,3,present,0.811589002609253,1,vertical,vertical,1,1.08234612411923,red,3,1,672.5,379.163522034968,672.5,820.836477965032,672.5,820.836477965032,1055,600,672.5,379.163522034968,0,0,0,0,0,0,0,0,4,NaN,NaN,NaN,vertical,vertical,vertical,none,none,none
1c,22,100165,2,60,124,21,F,NA,variable,homogeneous,5,absent,0.87252402305603,1,horizontal,horizontal,1,0.811761713027954,green,5,NaN,619.68777079743,780.31222920257,NaN,NaN,915.767577433584,827.206663668034,1051.86052685176,560.109211414741,839.890788585259,348.13947314824,572.793336331966,484.232422566416,619.68777079743,780.31222920257,0,0,0,0,0,0,4,NaN,vertical,horizontal,horizontal,horizontal,horizontal,none
1c,22,100165,2,61,125,21,F,NA,variable,homogeneous,6,present,1.13156008720398,0,vertical,horizontal,1,1.08234612411923,green,3,6,1032.95409169886,496.282156015671,567.045908301137,703.717843984329,773.345241866748,853.60308331891,1006.29933356561,749.885239334581,1032.95409169886,496.282156015671,826.654758133252,346.39691668109,593.700666434388,450.114760665419,567.045908301137,703.717843984329,0,0,4,0,0,0,horizontal,vertical,vertical,vertical,vertical,horizontal
1c,22,100165,2,62,126,21,F,NA,variable,homogeneous,5,absent,0.675781011581421,1,horizontal,horizontal,1,0.658822698063321,green,5,NaN,619.68777079743,780.31222920257,NaN,NaN,915.767577433584,827.206663668034,1051.86052685176,560.109211414741,839.890788585259,348.13947314824,572.793336331966,484.232422566416,619.68777079743,780.31222920257,0,0,0,0,0,0,4,NaN,vertical,vertical,vertical,horizontal,horizontal,none
1c,22,100165,2,63,127,21,F,NA,variable,homogeneous,6,present,0.511626958847046,1,horizontal,horizontal,1,0.729409935739305,red,5,6,668.665290897936,381.422338320961,545.03883773512,604.450363641507,676.373546837184,823.028025320546,931.334709102064,818.577661679039,1054.96116226488,595.549636358493,923.626453162816,376.971974679454,668.665290897936,381.422338320961,545.03883773512,604.450363641507,0,0,0,0,4,0,vertical,vertical,horizontal,horizontal,horizontal,horizontal
1c,22,100165,2,64,128,21,F,NA,variable,homogeneous,6,present,NaN,0,vertical,none,0,0.647058158450656,green,5,6,657.405809614959,388.595418998464,545.621167183745,617.787900804752,688.215357568785,829.192481806288,942.594190385041,811.404581001536,1054.37883281626,582.212099195248,911.784642431215,370.807518193712,657.405809614959,388.595418998464,545.621167183745,617.787900804752,0,0,0,0,4,0,vertical,vertical,horizontal,horizontal,vertical,horizontal
1c,22,100165,3,1,129,21,F,NA,variable,homogeneous,4,present,1.72667407989502,1,vertical,vertical,1,0.847055331865946,red,2,3,1054.37883281626,582.212099195248,782.212099195248,345.621167183745,817.787900804752,854.378832816255,1054.37883281626,582.212099195248,782.212099195248,345.621167183745,545.621167183745,617.787900804752,0,0,0,0,0,4,0,0,NaN,NaN,horizontal,vertical,horizontal,horizontal,none,none
1c,22,100165,3,2,130,21,F,NA,variable,homogeneous,6,absent,0.74512505531311,1,horizontal,horizontal,1,0.988229807217916,green,2,NaN,1052.5183575291,635.489140744817,NaN,NaN,895.524681321058,836.431882914531,1052.5183575291,635.489140744817,956.993676208043,399.057257830286,704.475318678942,363.568117085469,547.481642470899,564.510859255183,643.006323791957,800.942742169714,0,4,0,0,0,0,vertical,horizontal,horizontal,horizontal,vertical,vertical
1c,22,100165,3,3,131,21,F,NA,variable,homogeneous,4,absent,0.67914605140686,1,horizontal,horizontal,1,0.952936188379923,green,4,NaN,596.34794493794,446.537169096228,NaN,NaN,646.537169096228,803.65205506206,1003.65205506206,753.462830903772,953.462830903772,396.34794493794,596.34794493794,446.537169096228,0,0,0,0,0,0,0,4,NaN,NaN,vertical,vertical,horizontal,horizontal,none,none
1c,22,100165,3,4,132,21,F,NA,variable,homogeneous,5,absent,0.871771812438965,1,horizontal,horizontal,1,0.941171648767259,red,1,NaN,853.017481158529,849.42763818712,NaN,NaN,853.017481158529,849.42763818712,1053.60308331891,626.654758133252,903.717843984329,367.045908301137,610.498069503264,429.371695378491,579.163522034968,727.5,0,0,4,0,0,0,0,NaN,horizontal,vertical,vertical,vertical,vertical,none
1c,22,100165,3,5,133,21,F,NA,variable,homogeneous,3,absent,0.635257005691528,1,horizontal,horizontal,1,1.08234612411923,red,3,NaN,579.163522034968,727.5,NaN,NaN,1020.83647796503,727.5,800,345,579.163522034968,727.5,0,0,0,0,0,0,0,0,4,NaN,NaN,NaN,vertical,horizontal,horizontal,none,none,none
1c,22,100165,3,6,134,21,F,NA,variable,homogeneous,6,absent,0.642009019851685,1,vertical,vertical,1,0.905878029929267,green,5,NaN,664.870587620533,383.747735480111,NaN,NaN,680.284751489598,825.151636179026,935.129412379467,816.252264519889,1054.84466088987,591.100628340862,919.715248510402,374.848363820974,664.870587620533,383.747735480111,545.155339110131,608.899371659138,0,0,0,0,4,0,vertical,vertical,horizontal,horizontal,vertical,horizontal
1c,22,100165,3,7,135,21,F,NA,variable,homogeneous,3,absent,0.746798038482666,1,vertical,vertical,1,0.976465267605252,red,1,NaN,813.345668841951,854.650531362416,NaN,NaN,813.345668841951,854.650531362416,1013.86099482608,461.117046071168,572.793336331966,484.232422566416,0,0,0,0,0,0,4,0,0,NaN,NaN,NaN,vertical,horizontal,horizontal,none,none,none
1c,22,100165,3,8,136,21,F,NA,variable,homogeneous,4,absent,0.533773183822632,1,horizontal,horizontal,1,1.01175888644324,red,3,NaN,680.284751489598,374.848363820974,NaN,NaN,919.715248510402,825.151636179026,1025.15163617903,480.284751489598,680.284751489598,374.848363820974,574.848363820974,719.715248510402,0,0,0,0,0,0,4,0,NaN,NaN,horizontal,horizontal,horizontal,horizontal,none,none
1c,22,100165,3,9,137,21,F,NA,variable,homogeneous,5,present,0.741984128952026,1,vertical,vertical,1,0.858819871478611,green,3,4,813.345668841951,345.349468637584,561.936991243214,508.616172865948,938.882953928832,813.860994826083,1046.31108570371,534.001143498857,813.345668841951,345.349468637584,561.936991243214,508.616172865948,639.523300282292,798.172220171528,0,0,0,0,4,0,0,NaN,vertical,vertical,vertical,vertical,vertical,none
1c,22,100165,3,10,138,21,F,NA,variable,homogeneous,6,present,0.578727006912231,1,horizontal,horizontal,1,0.882348950703939,green,3,6,977.137884467044,416.568350913644,622.862115532956,783.431649086356,870.287525733335,845.121732464271,1047.42541020038,661.690083377915,977.137884467044,416.568350913644,729.712474266665,354.878267535729,552.574589799621,538.309916622085,622.862115532956,783.431649086356,0,0,4,0,0,0,vertical,horizontal,horizontal,vertical,vertical,vertical
1c,22,100165,3,11,139,21,F,NA,variable,homogeneous,5,absent,1.14384698867798,1,horizontal,horizontal,1,1.07058158450656,green,2,NaN,1054.65053136242,586.654331158049,NaN,NaN,891.383827134052,838.063008756786,1054.65053136242,586.654331158049,865.998856501143,353.688914296288,586.139005173917,461.117046071168,601.827779828472,760.476699717708,0,0,0,4,0,0,0,NaN,horizontal,horizontal,horizontal,horizontal,horizontal,none
1c,22,100165,3,12,140,21,F,NA,variable,homogeneous,3,present,0.623464107513428,1,vertical,vertical,1,0.623529079225328,green,3,1,586.139005173917,461.117046071168,786.654331158049,854.650531362416,786.654331158049,854.650531362416,1027.20666366803,484.232422566416,586.139005173917,461.117046071168,0,0,0,0,0,0,0,0,4,NaN,NaN,NaN,vertical,horizontal,vertical,none,none,none
1c,22,100165,3,13,141,21,F,NA,variable,homogeneous,4,absent,0.769184827804565,1,horizontal,horizontal,1,1.03528796566857,green,2,NaN,1034.72873763037,500.363562235235,NaN,NaN,899.636437764765,834.728737630372,1034.72873763037,500.363562235235,700.363562235235,365.271262369628,565.271262369628,699.636437764765,0,0,0,0,0,4,0,0,NaN,NaN,vertical,horizontal,vertical,horizontal,none,none
1c,22,100165,3,14,142,21,F,NA,variable,homogeneous,3,absent,0.479129076004028,1,horizontal,horizontal,1,0.729409935739305,green,3,NaN,545.970351986605,577.775285599347,NaN,NaN,907.767656743878,831.108485694346,946.261991269517,391.116228706307,545.970351986605,577.775285599347,0,0,0,0,0,0,0,0,4,NaN,NaN,NaN,horizontal,horizontal,horizontal,none,none,none
1c,22,100165,3,15,143,21,F,NA,variable,homogeneous,3,present,0.603333950042725,1,vertical,vertical,1,0.729409935739305,green,3,2,626.090418184063,413.504806087112,1048.46436652023,542.637481142314,725.445215295702,843.857712770574,1048.46436652023,542.637481142314,626.090418184063,413.504806087112,0,0,0,0,0,0,0,0,4,NaN,NaN,NaN,horizontal,horizontal,vertical,none,none,none
1c,22,100165,3,16,144,21,F,NA,variable,homogeneous,3,absent,0.961503982543945,1,vertical,vertical,1,0.894113490316603,green,1,NaN,596.34794493794,753.462830903772,NaN,NaN,596.34794493794,753.462830903772,1034.72873763037,699.636437764765,768.923317431687,346.900731331463,0,0,0,0,0,0,4,0,0,NaN,NaN,NaN,vertical,vertical,horizontal,none,none,none
1c,22,100165,3,17,145,21,F,NA,variable,homogeneous,5,present,0.838640928268433,1,horizontal,horizontal,1,0.894113490316603,green,5,3,632.704947607421,792.450942956807,822.224714400653,345.970351986605,931.334709102064,818.577661679039,1048.46436652023,542.637481142314,822.224714400653,345.970351986605,565.271262369628,500.363562235235,632.704947607421,792.450942956807,0,0,0,0,0,0,4,NaN,horizontal,horizontal,vertical,horizontal,horizontal,none
1c,22,100165,3,18,146,21,F,NA,variable,homogeneous,3,present,0.8975989818573,1,vertical,vertical,1,0.694116316901313,red,2,3,874.554784704298,356.142287229426,551.535633479765,657.362518857686,973.909581815937,786.495193912888,874.554784704298,356.142287229426,551.535633479765,657.362518857686,0,0,0,0,0,0,0,4,0,NaN,NaN,NaN,horizontal,vertical,vertical,none,none,none
1c,22,100165,3,19,147,21,F,NA,variable,homogeneous,5,absent,1.95174789428711,1,horizontal,horizontal,1,0.99999434683058,red,2,NaN,953.462830903772,803.65205506206,NaN,NaN,653.738008730483,808.883771293693,953.462830903772,803.65205506206,1041.10723677783,516.980120613425,795.549636358493,345.03883773512,556.142287229426,525.445215295702,0,0,0,4,0,0,0,NaN,horizontal,horizontal,vertical,horizontal,vertical,none
1c,22,100165,3,20,148,21,F,NA,variable,homogeneous,4,present,1.63157105445862,1,horizontal,horizontal,1,0.811761713027954,red,2,1,1029.19248180629,711.784642431215,688.215357568785,829.192481806288,688.215357568785,829.192481806288,1029.19248180629,711.784642431215,911.784642431215,370.807518193712,570.807518193712,488.215357568785,0,0,0,0,0,4,0,0,NaN,NaN,horizontal,horizontal,horizontal,vertical,none,none
1c,22,100165,3,21,149,21,F,NA,variable,homogeneous,6,present,1.09380412101746,0,horizontal,vertical,1,0.894113490316603,green,1,5,791.100628340862,854.844660889869,583.747735480111,464.870587620533,791.100628340862,854.844660889869,1016.25226451989,735.129412379467,1025.15163617903,480.284751489598,808.899371659138,345.155339110131,583.747735480111,464.870587620533,574.848363820974,719.715248510402,4,0,0,0,0,0,horizontal,vertical,vertical,vertical,horizontal,horizontal
1c,22,100165,3,22,150,21,F,NA,variable,homogeneous,4,absent,1.64531111717224,1,vertical,vertical,1,1.07058158450656,red,3,NaN,626.090418184063,413.504806087112,NaN,NaN,973.909581815937,786.495193912888,986.495193912888,426.090418184063,626.090418184063,413.504806087112,613.504806087112,773.909581815937,0,0,0,0,0,0,4,0,NaN,NaN,horizontal,vertical,vertical,horizontal,none,none
1c,22,100165,3,23,151,21,F,NA,variable,homogeneous,3,present,1.03821086883545,1,horizontal,horizontal,1,0.976465267605252,green,2,1,1032.95409169886,703.717843984329,593.700666434388,749.885239334581,593.700666434388,749.885239334581,1032.95409169886,703.717843984329,773.345241866748,346.39691668109,0,0,0,0,0,0,0,4,0,NaN,NaN,NaN,vertical,horizontal,horizontal,none,none,none
1c,22,100165,3,24,152,21,F,NA,variable,homogeneous,3,present,NaN,0,vertical,none,0,0.729409935739305,red,3,2,579.163522034968,727.5,800,345,1020.83647796503,727.5,800,345,579.163522034968,727.5,0,0,0,0,0,0,0,0,4,NaN,NaN,NaN,vertical,vertical,vertical,none,none,none
1c,22,100165,3,25,153,21,F,NA,variable,homogeneous,5,absent,1.41391801834106,1,horizontal,horizontal,1,0.811761713027954,green,5,NaN,549.685068220846,648.656293821019,NaN,NaN,768.923317431687,853.099268668537,1031.10848569435,707.767656743878,973.909581815937,413.504806087112,676.373546837184,376.971974679454,549.685068220846,648.656293821019,0,0,0,0,0,0,4,NaN,horizontal,vertical,horizontal,vertical,horizontal,none
1c,22,100165,3,26,154,21,F,NA,variable,homogeneous,6,absent,1.02405285835266,1,horizontal,horizontal,1,0.870584411091275,red,3,NaN,967.295052392579,407.549057043193,NaN,NaN,883.019879386575,841.107236777826,1050.31493177915,648.656293821019,967.295052392579,407.549057043193,716.980120613425,358.892763222174,549.685068220846,551.343706178981,632.704947607421,792.450942956807,0,0,4,0,0,0,horizontal,vertical,horizontal,vertical,vertical,horizontal
1c,22,100165,3,27,155,21,F,NA,variable,homogeneous,4,absent,0.682228803634644,1,vertical,vertical,1,1.08234612411923,green,2,NaN,1039.62161830041,687.215136548046,NaN,NaN,712.784863451954,839.621618300407,1039.62161830041,687.215136548046,887.215136548046,360.378381699593,560.378381699593,512.784863451954,0,0,0,0,0,4,0,0,NaN,NaN,horizontal,vertical,horizontal,vertical,none,none
1c,22,100165,3,28,156,21,F,NA,variable,homogeneous,6,present,1.16575288772583,1,vertical,vertical,1,0.670587237675985,red,1,2,721.200666434388,842.519411655264,970.628304621509,789.501930496736,721.200666434388,842.519411655264,970.628304621509,789.501930496736,1049.42763818712,546.982518841471,878.799333565612,357.480588344736,629.371695378491,410.498069503264,550.57236181288,653.017481158529,4,0,0,0,0,0,vertical,vertical,vertical,horizontal,horizontal,horizontal
1c,22,100165,3,29,157,21,F,NA,variable,homogeneous,5,present,0.668169975280762,1,vertical,vertical,1,0.729409935739305,red,4,1,650.114760665419,393.700666434388,800,855,800,855,1042.51941165526,678.799333565612,949.885239334581,393.700666434388,650.114760665419,393.700666434388,557.480588344736,678.799333565612,0,0,0,0,0,4,0,NaN,horizontal,vertical,vertical,vertical,horizontal,none
1c,22,100165,3,30,158,21,F,NA,variable,homogeneous,6,present,0.524660110473633,1,vertical,vertical,1,0.976465267605252,green,4,5,768.923317431687,346.900731331463,565.271262369628,500.363562235235,831.076682568313,853.099268668537,1034.72873763037,699.636437764765,1003.65205506206,446.537169096228,768.923317431687,346.900731331463,565.271262369628,500.363562235235,596.34794493794,753.462830903772,0,0,0,4,0,0,horizontal,horizontal,horizontal,vertical,vertical,vertical
1c,22,100165,3,31,159,21,F,NA,variable,homogeneous,3,absent,0.401000022888184,1,vertical,vertical,1,1.08234612411923,red,3,NaN,777.775285599347,345.970351986605,NaN,NaN,591.116228706307,746.261991269517,1031.10848569435,707.767656743878,777.775285599347,345.970351986605,0,0,0,0,0,0,0,0,4,NaN,NaN,NaN,vertical,horizontal,vertical,none,none,none
1c,22,100165,3,32,160,21,F,NA,variable,homogeneous,5,present,1.40026688575745,1,vertical,vertical,1,0.741174475351969,red,2,3,1048.46436652023,542.637481142314,822.224714400653,345.970351986605,931.334709102064,818.577661679039,1048.46436652023,542.637481142314,822.224714400653,345.970351986605,565.271262369628,500.363562235235,632.704947607421,792.450942956807,0,0,0,4,0,0,0,NaN,vertical,vertical,vertical,vertical,horizontal,none
1c,22,100165,3,33,161,21,F,NA,variable,homogeneous,3,absent,0.615112066268921,1,vertical,vertical,1,0.741174475351969,green,3,NaN,545.349468637584,586.654331158049,NaN,NaN,915.767577433584,827.206663668034,938.882953928832,386.139005173917,545.349468637584,586.654331158049,0,0,0,0,0,0,0,0,4,NaN,NaN,NaN,horizontal,vertical,vertical,none,none,none
1c,22,100165,3,34,162,21,F,NA,variable,homogeneous,3,present,0.931300163269043,1,horizontal,horizontal,1,0.764703554577298,red,1,3,692.232343256122,831.108485694346,653.738008730483,391.116228706307,692.232343256122,831.108485694346,1054.0296480134,577.775285599347,653.738008730483,391.116228706307,0,0,0,0,0,0,4,0,0,NaN,NaN,NaN,horizontal,horizontal,vertical,none,none,none
1c,22,100165,3,35,163,21,F,NA,variable,homogeneous,4,absent,0.910444021224976,0,vertical,horizontal,1,0.823526252640618,red,1,NaN,883.019879386575,841.107236777826,NaN,NaN,883.019879386575,841.107236777826,1041.10723677783,516.980120613425,716.980120613425,358.892763222174,558.892763222174,683.019879386575,0,0,0,0,4,0,0,0,NaN,NaN,vertical,vertical,horizontal,vertical,none,none
1c,22,100165,3,36,164,21,F,NA,variable,homogeneous,6,present,1.00616717338562,1,horizontal,horizontal,1,0.858819871478611,red,3,5,1018.57766167904,468.665290897936,576.971974679454,476.373546837184,804.450363641507,854.96116226488,1023.02802532055,723.626453162816,1018.57766167904,468.665290897936,795.549636358493,345.03883773512,576.971974679454,476.373546837184,581.422338320961,731.334709102064,0,0,4,0,0,0,vertical,horizontal,horizontal,vertical,horizontal,vertical
1c,22,100165,3,37,165,21,F,NA,variable,homogeneous,5,present,0.84600305557251,1,horizontal,horizontal,1,0.988229807217916,green,3,4,800,345,557.480588344736,521.200666434388,949.885239334581,806.299333565612,1042.51941165526,521.200666434388,800,345,557.480588344736,521.200666434388,650.114760665419,806.299333565612,0,0,0,0,4,0,0,NaN,horizontal,vertical,horizontal,horizontal,horizontal,none
1c,22,100165,3,38,166,21,F,NA,variable,homogeneous,5,present,0.567924022674561,1,vertical,vertical,1,0.835290792253282,green,4,3,668.665290897936,381.422338320961,967.295052392579,407.549057043193,777.775285599347,854.029648013395,1034.72873763037,699.636437764765,967.295052392579,407.549057043193,668.665290897936,381.422338320961,551.535633479765,657.362518857686,0,0,0,0,0,4,0,NaN,vertical,vertical,horizontal,vertical,horizontal,none
1c,22,100165,3,39,167,21,F,NA,variable,homogeneous,4,present,0.90863299369812,1,vertical,vertical,1,0.858819871478611,green,4,2,546.39691668109,573.345241866748,1053.60308331891,626.654758133252,773.345241866748,853.60308331891,1053.60308331891,626.654758133252,826.654758133252,346.39691668109,546.39691668109,573.345241866748,0,0,0,0,0,0,0,4,NaN,NaN,horizontal,horizontal,horizontal,vertical,none,none
1c,22,100165,3,40,168,21,F,NA,variable,homogeneous,3,present,0.586403846740723,1,horizontal,horizontal,1,0.764703554577298,green,3,2,549.685068220846,551.343706178981,967.295052392579,407.549057043193,883.019879386575,841.107236777826,967.295052392579,407.549057043193,549.685068220846,551.343706178981,0,0,0,0,0,0,0,0,4,NaN,NaN,NaN,horizontal,vertical,horizontal,none,none,none
1c,22,100165,3,41,169,21,F,NA,variable,homogeneous,3,absent,0.57804799079895,1,horizontal,horizontal,1,1.01175888644324,green,2,NaN,1043.85771277057,525.445215295702,NaN,NaN,742.637481142314,848.464366520235,1043.85771277057,525.445215295702,613.504806087112,426.090418184063,0,0,0,0,0,0,0,4,0,NaN,NaN,NaN,vertical,horizontal,vertical,none,none,none
1c,22,100165,3,42,170,21,F,NA,variable,homogeneous,5,present,0.863864898681641,1,horizontal,horizontal,1,1.09411066373189,red,4,3,643.006323791957,399.057257830286,942.594190385041,388.595418998464,808.899371659138,854.844660889869,1045.12173246427,670.287525733335,942.594190385041,388.595418998464,643.006323791957,399.057257830286,560.378381699593,687.215136548046,0,0,0,0,0,4,0,NaN,vertical,horizontal,vertical,horizontal,horizontal,none
1c,22,100165,3,43,171,21,F,NA,variable,homogeneous,5,absent,0.480315923690796,1,vertical,vertical,1,0.729409935739305,green,1,NaN,883.019879386575,841.107236777826,NaN,NaN,883.019879386575,841.107236777826,1054.96116226488,595.549636358493,874.554784704298,356.142287229426,591.116228706307,453.738008730483,596.34794493794,753.462830903772,0,0,4,0,0,0,0,NaN,vertical,horizontal,vertical,vertical,vertical,none
1c,22,100165,3,44,172,21,F,NA,variable,homogeneous,6,present,0.630031824111938,1,horizontal,horizontal,1,0.6,red,6,2,545,600,927.5,820.836477965032,672.5,820.836477965032,927.5,820.836477965032,1055,600,927.5,379.163522034968,672.5,379.163522034968,545,600,0,0,0,0,0,4,vertical,horizontal,vertical,horizontal,horizontal,horizontal
1c,22,100165,3,45,173,21,F,NA,variable,homogeneous,4,present,1.12722516059875,0,horizontal,vertical,1,0.835290792253282,green,3,2,949.885239334581,393.700666434388,1006.29933356561,749.885239334581,650.114760665419,806.299333565612,1006.29933356561,749.885239334581,949.885239334581,393.700666434388,593.700666434388,450.114760665419,0,0,0,0,0,0,4,0,NaN,NaN,vertical,vertical,horizontal,vertical,none,none
1c,22,100165,3,46,174,21,F,NA,variable,homogeneous,4,present,1.04860901832581,1,horizontal,horizontal,1,0.941171648767259,green,3,4,636.089159529932,404.658667004661,604.658667004661,763.910840470068,963.910840470068,795.341332995339,995.341332995339,436.089159529932,636.089159529932,404.658667004661,604.658667004661,763.910840470068,0,0,0,0,0,0,4,0,NaN,NaN,horizontal,vertical,horizontal,horizontal,none,none
1c,22,100165,3,47,175,21,F,NA,variable,homogeneous,6,present,0.662297010421753,1,vertical,vertical,1,1.02352342605591,green,2,6,980.31222920257,780.31222920257,553.688914296288,665.998856501143,734.001143498857,846.311085703712,980.31222920257,780.31222920257,1046.31108570371,534.001143498857,865.998856501143,353.688914296288,619.68777079743,419.68777079743,553.688914296288,665.998856501143,0,4,0,0,0,0,horizontal,vertical,vertical,vertical,vertical,horizontal
1c,22,100165,3,48,176,21,F,NA,variable,homogeneous,6,absent,0.821483850479126,1,vertical,vertical,1,0.882348950703939,green,6,NaN,556.142287229426,674.554784704298,NaN,NaN,742.637481142314,848.464366520235,986.495193912888,773.909581815937,1043.85771277057,525.445215295702,857.362518857686,351.535633479765,613.504806087112,426.090418184063,556.142287229426,674.554784704298,0,0,0,0,0,4,vertical,vertical,vertical,vertical,vertical,vertical
1c,22,100165,3,49,177,21,F,NA,variable,homogeneous,5,present,1.05907821655273,1,horizontal,horizontal,1,0.658822698063321,red,2,3,1049.42763818712,546.982518841471,826.654758133252,346.39691668109,927.5,820.836477965032,1049.42763818712,546.982518841471,826.654758133252,346.39691668109,567.045908301137,496.282156015671,629.371695378491,789.501930496736,0,0,0,4,0,0,0,NaN,vertical,horizontal,vertical,horizontal,vertical,none
1c,22,100165,3,50,178,21,F,NA,variable,homogeneous,4,present,0.804558038711548,1,vertical,vertical,1,0.79999717341529,green,2,1,1003.65205506206,753.462830903772,646.537169096228,803.65205506206,646.537169096228,803.65205506206,1003.65205506206,753.462830903772,953.462830903772,396.34794493794,596.34794493794,446.537169096228,0,0,0,0,0,4,0,0,NaN,NaN,horizontal,vertical,vertical,horizontal,none,none
1c,22,100165,3,51,179,21,F,NA,variable,homogeneous,5,absent,0.919229030609131,1,vertical,vertical,1,0.729409935739305,red,1,NaN,716.980120613425,841.107236777826,NaN,NaN,716.980120613425,841.107236777826,1003.65205506206,753.462830903772,1008.88377129369,453.738008730483,725.445215295702,356.142287229426,545.03883773512,595.549636358493,0,0,4,0,0,0,0,NaN,vertical,horizontal,horizontal,horizontal,horizontal,none
1c,22,100165,3,52,180,21,F,NA,variable,homogeneous,4,present,0.431822061538696,0,horizontal,vertical,1,1.09411066373189,red,1,3,870.287525733335,845.121732464271,729.712474266665,354.878267535729,870.287525733335,845.121732464271,1045.12173246427,529.712474266665,729.712474266665,354.878267535729,554.878267535729,670.287525733335,0,0,0,0,4,0,0,0,NaN,NaN,horizontal,vertical,horizontal,vertical,none,none
1c,22,100165,3,53,181,21,F,NA,variable,homogeneous,6,absent,0.752640962600708,1,horizontal,horizontal,1,0.611764539612664,green,4,NaN,729.712474266665,354.878267535729,NaN,NaN,870.287525733335,845.121732464271,1047.42541020038,661.690083377915,977.137884467044,416.568350913644,729.712474266665,354.878267535729,552.574589799621,538.309916622085,622.862115532956,783.431649086356,0,0,0,4,0,0,horizontal,vertical,vertical,horizontal,horizontal,horizontal
1c,22,100165,3,54,182,21,F,NA,variable,homogeneous,6,absent,0.764204978942871,1,vertical,vertical,1,0.79999717341529,red,1,NaN,813.345668841951,854.650531362416,NaN,NaN,813.345668841951,854.650531362416,1027.20666366803,715.767577433584,1013.86099482608,461.117046071168,786.654331158049,345.349468637584,572.793336331966,484.232422566416,586.139005173917,738.882953928832,4,0,0,0,0,0,vertical,vertical,horizontal,horizontal,vertical,horizontal
1c,22,100165,3,55,183,21,F,NA,variable,homogeneous,6,present,0.852942943572998,1,vertical,vertical,1,0.647058158450656,red,5,4,548.13947314824,560.109211414741,708.616172865948,361.936991243214,891.383827134052,838.063008756786,1051.86052685176,639.890788585259,960.476699717708,401.827779828472,708.616172865948,361.936991243214,548.13947314824,560.109211414741,639.523300282292,798.172220171528,0,0,0,0,4,0,vertical,vertical,vertical,horizontal,vertical,vertical
1c,22,100165,3,56,184,21,F,NA,variable,homogeneous,3,present,0.667340993881226,1,horizontal,horizontal,1,1.07058158450656,red,1,2,760.109211414741,851.86052685176,1038.06300875679,508.616172865948,760.109211414741,851.86052685176,1038.06300875679,508.616172865948,601.827779828472,439.523300282291,0,0,0,0,0,0,4,0,0,NaN,NaN,NaN,horizontal,horizontal,horizontal,none,none,none
1c,22,100165,3,57,185,21,F,NA,variable,homogeneous,6,absent,1.10457301139832,1,horizontal,horizontal,1,0.988229807217916,red,4,NaN,786.654331158049,345.349468637584,NaN,NaN,813.345668841951,854.650531362416,1027.20666366803,715.767577433584,1013.86099482608,461.117046071168,786.654331158049,345.349468637584,572.793336331966,484.232422566416,586.139005173917,738.882953928832,0,0,0,4,0,0,vertical,vertical,horizontal,horizontal,vertical,vertical
1c,22,100165,3,58,186,21,F,NA,variable,homogeneous,4,present,0.90546989440918,1,vertical,vertical,1,0.729409935739305,red,4,3,591.116228706307,453.738008730483,946.261991269517,391.116228706307,653.738008730483,808.883771293693,1008.88377129369,746.261991269517,946.261991269517,391.116228706307,591.116228706307,453.738008730483,0,0,0,0,0,0,0,4,NaN,NaN,horizontal,horizontal,vertical,vertical,none,none
1c,22,100165,3,59,187,21,F,NA,variable,homogeneous,5,absent,1.00520801544189,1,vertical,vertical,1,0.870584411091275,green,2,NaN,973.909581815937,786.495193912888,NaN,NaN,676.373546837184,823.028025320546,973.909581815937,786.495193912888,1031.10848569435,492.232343256122,768.923317431687,346.900731331463,549.685068220846,551.343706178981,0,0,0,4,0,0,0,NaN,horizontal,vertical,horizontal,horizontal,horizontal,none
1c,22,100165,3,60,188,21,F,NA,variable,homogeneous,4,absent,0.741745948791504,1,horizontal,horizontal,1,0.611764539612664,red,2,NaN,1051.86052685176,560.109211414741,NaN,NaN,839.890788585259,851.86052685176,1051.86052685176,560.109211414741,760.109211414741,348.13947314824,548.13947314824,639.890788585259,0,0,0,0,0,4,0,0,NaN,NaN,vertical,horizontal,vertical,horizontal,none,none
1c,22,100165,3,61,189,21,F,NA,variable,homogeneous,3,absent,0.484827995300293,1,horizontal,horizontal,1,0.79999717341529,red,2,NaN,826.654758133252,346.39691668109,NaN,NaN,1006.29933356561,749.885239334581,826.654758133252,346.39691668109,567.045908301137,703.717843984329,0,0,0,0,0,0,0,4,0,NaN,NaN,NaN,vertical,horizontal,vertical,none,none,none
1c,22,100165,3,62,190,21,F,NA,variable,homogeneous,5,absent,0.565960884094238,1,vertical,vertical,1,0.976465267605252,red,3,NaN,800,345,NaN,NaN,949.885239334581,806.299333565612,1042.51941165526,521.200666434388,800,345,557.480588344736,521.200666434388,650.114760665419,806.299333565612,0,0,0,0,4,0,0,NaN,vertical,vertical,vertical,horizontal,horizontal,none
1c,22,100165,3,63,191,21,F,NA,variable,homogeneous,4,absent,0.884464979171753,1,vertical,vertical,1,0.929407109154595,green,1,NaN,967.295052392579,792.450942956807,NaN,NaN,967.295052392579,792.450942956807,992.450942956807,432.704947607421,632.704947607421,407.549057043193,607.549057043193,767.295052392579,0,0,0,0,4,0,0,0,NaN,NaN,vertical,horizontal,horizontal,horizontal,none,none
1c,22,100165,3,64,192,21,F,NA,variable,homogeneous,6,absent,0.551987886428833,1,vertical,vertical,1,0.870584411091275,red,1,NaN,903.717843984329,832.954091698863,NaN,NaN,903.717843984329,832.954091698863,1053.60308331891,626.654758133252,949.885239334581,393.700666434388,696.282156015671,367.045908301137,546.39691668109,573.345241866748,650.114760665419,806.299333565612,4,0,0,0,0,0,vertical,horizontal,vertical,horizontal,vertical,vertical
1c,22,100165,4,1,193,21,F,NA,variable,homogeneous,5,absent,1.09124302864075,1,horizontal,horizontal,1,0.988229807217916,green,5,NaN,593.700666434388,749.885239334581,NaN,NaN,878.799333565612,842.519411655264,1055,600,878.799333565612,357.480588344736,593.700666434388,450.114760665419,593.700666434388,749.885239334581,0,0,0,0,0,0,4,NaN,vertical,vertical,horizontal,vertical,horizontal,none
1c,22,100165,4,2,194,21,F,NA,variable,homogeneous,4,present,0.79564905166626,1,horizontal,horizontal,1,0.929407109154595,green,2,3,1054.96116226488,595.549636358493,795.549636358493,345.03883773512,804.450363641507,854.96116226488,1054.96116226488,595.549636358493,795.549636358493,345.03883773512,545.03883773512,604.450363641507,0,0,0,0,0,4,0,0,NaN,NaN,vertical,horizontal,horizontal,horizontal,none,none
1c,22,100165,4,3,195,21,F,NA,variable,homogeneous,6,absent,0.671174049377441,1,vertical,vertical,1,0.764703554577298,green,1,NaN,742.637481142314,848.464366520235,NaN,NaN,742.637481142314,848.464366520235,986.495193912888,773.909581815937,1043.85771277057,525.445215295702,857.362518857686,351.535633479765,613.504806087112,426.090418184063,556.142287229426,674.554784704298,4,0,0,0,0,0,vertical,vertical,horizontal,vertical,vertical,horizontal
1c,22,100165,4,4,196,21,F,NA,variable,homogeneous,3,present,0.840012788772583,1,vertical,vertical,1,0.764703554577298,red,3,2,545.349468637584,613.345668841951,915.767577433584,372.793336331966,938.882953928832,813.860994826083,915.767577433584,372.793336331966,545.349468637584,613.345668841951,0,0,0,0,0,0,0,0,4,NaN,NaN,NaN,horizontal,horizontal,vertical,none,none,none
1c,22,100165,4,5,197,21,F,NA,variable,homogeneous,3,present,0.603271007537842,1,vertical,vertical,1,0.917642569541931,green,3,1,786.654331158049,345.349468637584,586.139005173917,738.882953928832,586.139005173917,738.882953928832,1027.20666366803,715.767577433584,786.654331158049,345.349468637584,0,0,0,0,0,0,0,0,4,NaN,NaN,NaN,horizontal,vertical,vertical,none,none,none
1c,22,100165,4,6,198,21,F,NA,variable,homogeneous,5,absent,0.583892107009888,1,horizontal,horizontal,1,0.823526252640618,red,5,NaN,583.747735480111,735.129412379467,NaN,NaN,861.690083377915,847.425410200379,1054.37883281626,617.787900804752,895.524681321058,363.568117085469,604.658667004661,436.089159529932,583.747735480111,735.129412379467,0,0,0,0,0,0,4,NaN,vertical,vertical,vertical,vertical,horizontal,none
1c,22,100165,4,7,199,21,F,NA,variable,homogeneous,6,present,1.11124300956726,1,horizontal,horizontal,1,0.764703554577298,red,1,6,680.284751489598,825.151636179026,545.155339110131,608.899371659138,680.284751489598,825.151636179026,935.129412379467,816.252264519889,1054.84466088987,591.100628340862,919.715248510402,374.848363820974,664.870587620533,383.747735480111,545.155339110131,608.899371659138,4,0,0,0,0,0,horizontal,horizontal,horizontal,vertical,vertical,horizontal
1c,22,100165,4,8,200,21,F,NA,variable,homogeneous,3,present,0.761862993240356,1,horizontal,horizontal,1,0.823526252640618,red,3,2,716.980120613425,358.892763222174,1050.31493177915,648.656293821019,632.704947607421,792.450942956807,1050.31493177915,648.656293821019,716.980120613425,358.892763222174,0,0,0,0,0,0,0,0,4,NaN,NaN,NaN,vertical,vertical,horizontal,none,none,none
1c,22,100165,4,9,201,21,F,NA,variable,homogeneous,4,absent,0.634649038314819,1,horizontal,horizontal,1,0.858819871478611,green,2,NaN,1038.06300875679,691.383827134052,NaN,NaN,708.616172865948,838.063008756786,1038.06300875679,691.383827134052,891.383827134052,361.936991243214,561.936991243214,508.616172865948,0,0,0,0,0,4,0,0,NaN,NaN,vertical,horizontal,vertical,horizontal,none,none
1c,22,100165,4,10,202,21,F,NA,variable,homogeneous,4,absent,0.656009912490845,1,horizontal,horizontal,1,0.811761713027954,red,1,NaN,848.656293821019,850.314931779154,NaN,NaN,848.656293821019,850.314931779154,1050.31493177915,551.343706178981,751.343706178981,349.685068220846,549.685068220846,648.656293821019,0,0,0,0,4,0,0,0,NaN,NaN,horizontal,vertical,horizontal,vertical,none,none
1c,22,100165,4,11,203,21,F,NA,variable,homogeneous,6,present,0.575685024261475,1,vertical,vertical,1,0.741174475351969,green,2,5,956.993676208043,800.942742169714,643.006323791957,399.057257830286,704.475318678942,836.431882914531,956.993676208043,800.942742169714,1052.5183575291,564.510859255183,895.524681321058,363.568117085469,643.006323791957,399.057257830286,547.481642470899,635.489140744817,0,4,0,0,0,0,vertical,vertical,vertical,vertical,vertical,horizontal
1c,22,100165,4,12,204,21,F,NA,variable,homogeneous,3,absent,0.578078031539917,1,horizontal,horizontal,1,0.952936188379923,green,1,NaN,986.495193912888,773.909581815937,NaN,NaN,986.495193912888,773.909581815937,857.362518857686,351.535633479765,556.142287229426,674.554784704298,0,0,0,0,0,0,4,0,0,NaN,NaN,NaN,horizontal,horizontal,horizontal,none,none,none
1c,22,100165,4,13,205,21,F,NA,variable,homogeneous,6,absent,0.485877990722656,1,horizontal,horizontal,1,0.776468094189962,red,1,NaN,887.215136548046,839.621618300407,NaN,NaN,887.215136548046,839.621618300407,1051.12597701811,644.280285305067,963.910840470068,404.658667004661,712.784863451954,360.378381699593,548.874022981887,555.719714694933,636.089159529932,795.341332995339,4,0,0,0,0,0,horizontal,vertical,horizontal,horizontal,vertical,horizontal
1c,22,100165,4,14,206,21,F,NA,variable,homogeneous,6,absent,0.842543840408325,1,vertical,vertical,1,0.741174475351969,red,5,NaN,607.549057043193,432.704947607421,NaN,NaN,751.343706178981,850.314931779154,992.450942956807,767.295052392579,1041.10723677783,516.980120613425,848.656293821019,349.685068220846,607.549057043193,432.704947607421,558.892763222174,683.019879386575,0,0,0,0,4,0,horizontal,horizontal,horizontal,horizontal,vertical,vertical
1c,22,100165,4,15,207,21,F,NA,variable,homogeneous,6,absent,1.17255401611328,1,horizontal,horizontal,1,0.847055331865946,green,2,NaN,1008.88377129369,746.261991269517,NaN,NaN,777.775285599347,854.029648013395,1008.88377129369,746.261991269517,1031.10848569435,492.232343256122,822.224714400653,345.970351986605,591.116228706307,453.738008730483,568.891514305654,707.767656743878,0,4,0,0,0,0,horizontal,horizontal,vertical,horizontal,vertical,vertical
1c,22,100165,4,16,208,21,F,NA,variable,homogeneous,3,present,0.509328842163086,1,horizontal,horizontal,1,0.670587237675985,red,2,3,822.224714400653,345.970351986605,568.891514305654,707.767656743878,1008.88377129369,746.261991269517,822.224714400653,345.970351986605,568.891514305654,707.767656743878,0,0,0,0,0,0,0,4,0,NaN,NaN,NaN,vertical,horizontal,horizontal,none,none,none
1c,22,100165,4,17,209,21,F,NA,variable,homogeneous,5,absent,0.662417888641357,1,vertical,vertical,1,0.729409935739305,red,1,NaN,915.767577433584,827.206663668034,NaN,NaN,915.767577433584,827.206663668034,1051.86052685176,560.109211414741,839.890788585259,348.13947314824,572.793336331966,484.232422566416,619.68777079743,780.31222920257,0,0,4,0,0,0,0,NaN,vertical,horizontal,vertical,vertical,horizontal,none
1c,22,100165,4,18,210,21,F,NA,variable,homogeneous,6,present,0.926796913146973,1,horizontal,horizontal,1,0.752939014964634,green,6,4,561.936991243214,691.383827134052,839.890788585259,348.13947314824,760.109211414741,851.86052685176,998.172220171528,760.476699717708,1038.06300875679,508.616172865948,839.890788585259,348.13947314824,601.827779828472,439.523300282291,561.936991243214,691.383827134052,0,0,0,0,0,4,vertical,horizontal,vertical,horizontal,vertical,horizontal
1c,22,100165,4,19,211,21,F,NA,variable,homogeneous,6,absent,0.83644700050354,1,horizontal,horizontal,1,0.752939014964634,red,5,NaN,596.34794493794,446.537169096228,NaN,NaN,768.923317431687,853.099268668537,1003.65205506206,753.462830903772,1034.72873763037,500.363562235235,831.076682568313,346.900731331463,596.34794493794,446.537169096228,565.271262369628,699.636437764765,0,0,0,0,4,0,horizontal,horizontal,vertical,vertical,horizontal,vertical
1c,22,100165,4,20,212,21,F,NA,variable,homogeneous,5,present,0.513339042663574,1,vertical,vertical,1,0.788232633802626,green,4,5,613.504806087112,426.090418184063,576.971974679454,723.626453162816,848.656293821019,850.314931779154,1053.09926866854,631.076682568313,907.767656743878,368.891514305654,613.504806087112,426.090418184063,576.971974679454,723.626453162816,0,0,0,0,0,4,0,NaN,horizontal,horizontal,vertical,vertical,vertical,none
1c,22,100165,4,21,213,21,F,NA,variable,homogeneous,5,present,0.633840799331665,1,horizontal,horizontal,1,0.705880856513977,green,4,3,725.445215295702,356.142287229426,1008.88377129369,453.738008730483,716.980120613425,841.107236777826,1003.65205506206,753.462830903772,1008.88377129369,453.738008730483,725.445215295702,356.142287229426,545.03883773512,595.549636358493,0,0,0,0,0,4,0,NaN,vertical,vertical,vertical,horizontal,horizontal,none
1c,22,100165,4,22,214,21,F,NA,variable,homogeneous,3,absent,0.660173177719116,1,vertical,vertical,1,0.870584411091275,green,2,NaN,942.594190385041,388.595418998464,NaN,NaN,911.784642431215,829.192481806288,942.594190385041,388.595418998464,545.621167183745,582.212099195248,0,0,0,0,0,0,0,4,0,NaN,NaN,NaN,vertical,vertical,vertical,none,none,none
1c,22,100165,4,23,215,21,F,NA,variable,homogeneous,5,present,0.654118061065674,1,vertical,vertical,1,0.823526252640618,red,3,5,895.524681321058,363.568117085469,583.747735480111,735.129412379467,861.690083377915,847.425410200379,1054.37883281626,617.787900804752,895.524681321058,363.568117085469,604.658667004661,436.089159529932,583.747735480111,735.129412379467,0,0,0,0,4,0,0,NaN,vertical,horizontal,vertical,horizontal,horizontal,none
1c,22,100165,4,24,216,21,F,NA,variable,homogeneous,5,absent,0.579144954681396,1,vertical,vertical,1,0.79999717341529,green,4,NaN,680.284751489598,374.848363820974,NaN,NaN,764.510859255183,852.518357529101,1029.19248180629,711.784642431215,977.137884467044,416.568350913644,680.284751489598,374.848363820974,548.874022981887,644.280285305067,0,0,0,0,0,4,0,NaN,horizontal,horizontal,horizontal,vertical,horizontal,none
1c,22,100165,4,25,217,21,F,NA,variable,homogeneous,5,present,0.912951946258545,1,horizontal,horizontal,1,1.09411066373189,green,1,2,927.5,820.836477965032,1049.42763818712,546.982518841471,927.5,820.836477965032,1049.42763818712,546.982518841471,826.654758133252,346.39691668109,567.045908301137,496.282156015671,629.371695378491,789.501930496736,0,0,4,0,0,0,0,NaN,horizontal,horizontal,vertical,horizontal,horizontal,none
1c,22,100165,4,26,218,21,F,NA,variable,homogeneous,3,absent,0.921002149581909,1,vertical,vertical,1,0.682351777288649,green,1,NaN,1011.40458100154,742.594190385041,NaN,NaN,1011.40458100154,742.594190385041,817.787900804752,345.621167183745,570.807518193712,711.784642431215,0,0,0,0,0,0,4,0,0,NaN,NaN,NaN,vertical,horizontal,vertical,none,none,none
1c,22,100165,4,27,219,21,F,NA,variable,homogeneous,4,present,0.734231948852539,1,horizontal,horizontal,1,0.929407109154595,green,2,3,1003.65205506206,446.537169096228,646.537169096228,396.34794493794,953.462830903772,803.65205506206,1003.65205506206,446.537169096228,646.537169096228,396.34794493794,596.34794493794,753.462830903772,0,0,0,0,0,4,0,0,NaN,NaN,vertical,horizontal,vertical,horizontal,none,none
1c,22,100165,4,28,220,21,F,NA,variable,homogeneous,3,present,0.54204797744751,0,horizontal,vertical,1,0.858819871478611,green,3,1,738.309916622085,352.574589799621,616.568350913644,777.137884467044,616.568350913644,777.137884467044,1045.12173246427,670.287525733335,738.309916622085,352.574589799621,0,0,0,0,0,0,0,0,4,NaN,NaN,NaN,vertical,vertical,horizontal,none,none,none
1c,22,100165,4,29,221,21,F,NA,variable,homogeneous,5,absent,0.985055923461914,0,vertical,horizontal,1,0.988229807217916,red,5,NaN,545.03883773512,604.450363641507,NaN,NaN,725.445215295702,843.857712770574,1008.88377129369,746.261991269517,1003.65205506206,446.537169096228,716.980120613425,358.892763222174,545.03883773512,604.450363641507,0,0,0,0,0,0,4,NaN,horizontal,horizontal,vertical,vertical,vertical,none
1c,22,100165,4,30,222,21,F,NA,variable,homogeneous,5,present,1.28603410720825,1,horizontal,horizontal,1,1.04705250528124,red,5,4,545.970351986605,622.224714400653,700.363562235235,365.271262369628,742.637481142314,848.464366520235,1018.57766167904,731.334709102064,992.450942956807,432.704947607421,700.363562235235,365.271262369628,545.970351986605,622.224714400653,0,0,0,0,0,0,4,NaN,vertical,horizontal,horizontal,vertical,horizontal,none
1c,22,100165,4,31,223,21,F,NA,variable,homogeneous,3,present,0.90789794921875,1,vertical,vertical,1,0.611764539612664,green,2,1,986.495193912888,426.090418184063,857.362518857686,848.464366520235,857.362518857686,848.464366520235,986.495193912888,426.090418184063,556.142287229426,525.445215295702,0,0,0,0,0,0,0,4,0,NaN,NaN,NaN,horizontal,vertical,vertical,none,none,none
1c,22,100165,4,32,224,21,F,NA,variable,homogeneous,5,present,0.639214992523193,1,vertical,vertical,1,1.04705250528124,red,5,2,545.03883773512,604.450363641507,1008.88377129369,746.261991269517,725.445215295702,843.857712770574,1008.88377129369,746.261991269517,1003.65205506206,446.537169096228,716.980120613425,358.892763222174,545.03883773512,604.450363641507,0,0,0,0,0,0,4,NaN,vertical,horizontal,vertical,horizontal,vertical,none
1c,22,100165,4,33,225,21,F,NA,variable,homogeneous,4,present,1.09451007843018,1,horizontal,horizontal,1,0.705880856513977,red,4,3,563.568117085469,695.524681321058,704.475318678942,363.568117085469,895.524681321058,836.431882914531,1036.43188291453,504.475318678942,704.475318678942,363.568117085469,563.568117085469,695.524681321058,0,0,0,0,0,0,0,4,NaN,NaN,horizontal,vertical,horizontal,horizontal,none,none
1c,22,100165,4,34,226,21,F,NA,variable,homogeneous,6,present,1.68531489372253,1,horizontal,horizontal,1,0.823526252640618,red,2,3,1047.42541020038,661.690083377915,977.137884467044,416.568350913644,870.287525733335,845.121732464271,1047.42541020038,661.690083377915,977.137884467044,416.568350913644,729.712474266665,354.878267535729,552.574589799621,538.309916622085,622.862115532956,783.431649086356,0,4,0,0,0,0,horizontal,horizontal,horizontal,horizontal,horizontal,vertical
1c,22,100165,4,35,227,21,F,NA,variable,homogeneous,4,present,0.832970857620239,1,horizontal,horizontal,1,0.894113490316603,red,4,3,551.535633479765,657.362518857686,742.637481142314,351.535633479765,857.362518857686,848.464366520235,1048.46436652023,542.637481142314,742.637481142314,351.535633479765,551.535633479765,657.362518857686,0,0,0,0,0,0,0,4,NaN,NaN,vertical,horizontal,vertical,horizontal,none,none
1c,22,100165,4,36,228,21,F,NA,variable,homogeneous,3,absent,0.841998815536499,1,vertical,vertical,1,0.811761713027954,red,2,NaN,1041.10723677783,683.019879386575,NaN,NaN,607.549057043193,767.295052392579,1041.10723677783,683.019879386575,751.343706178981,349.685068220846,0,0,0,0,0,0,0,4,0,NaN,NaN,NaN,horizontal,vertical,horizontal,none,none,none
1c,22,100165,4,37,229,21,F,NA,variable,homogeneous,6,absent,0.748695135116577,1,vertical,vertical,1,0.694116316901313,green,5,NaN,672.5,379.163522034968,NaN,NaN,672.5,820.836477965032,927.5,820.836477965032,1055,600,927.5,379.163522034968,672.5,379.163522034968,545,600,0,0,0,0,4,0,vertical,vertical,horizontal,horizontal,vertical,horizontal
1c,22,100165,4,38,230,21,F,NA,variable,homogeneous,4,present,0.498283863067627,1,vertical,vertical,1,0.729409935739305,red,3,4,764.510859255183,347.4816424709,547.481642470899,635.489140744817,835.489140744817,852.518357529101,1052.5183575291,564.510859255183,764.510859255183,347.4816424709,547.481642470899,635.489140744817,0,0,0,0,0,0,4,0,NaN,NaN,horizontal,vertical,vertical,vertical,none,none
1c,22,100165,4,39,231,21,F,NA,variable,homogeneous,6,absent,0.646541118621826,1,horizontal,horizontal,1,0.705880856513977,green,4,NaN,899.636437764765,365.271262369628,NaN,NaN,700.363562235235,834.728737630372,953.462830903772,803.65205506206,1053.09926866854,568.923317431687,899.636437764765,365.271262369628,646.537169096228,396.34794493794,546.900731331463,631.076682568313,0,0,0,4,0,0,horizontal,horizontal,vertical,horizontal,vertical,vertical
1c,22,100165,4,40,232,21,F,NA,variable,homogeneous,4,present,0.540766954421997,1,vertical,vertical,1,1.04705250528124,green,1,3,887.215136548046,839.621618300407,712.784863451954,360.378381699593,887.215136548046,839.621618300407,1039.62161830041,512.784863451954,712.784863451954,360.378381699593,560.378381699593,687.215136548046,0,0,0,0,4,0,0,0,NaN,NaN,vertical,vertical,vertical,vertical,none,none
1c,22,100165,4,41,233,21,F,NA,variable,homogeneous,6,present,0.548310041427612,1,vertical,vertical,1,0.823526252640618,green,4,5,688.215357568785,370.807518193712,545.621167183745,582.212099195248,911.784642431215,829.192481806288,1054.37883281626,617.787900804752,942.594190385041,388.595418998464,688.215357568785,370.807518193712,545.621167183745,582.212099195248,657.405809614959,811.404581001536,0,0,0,4,0,0,vertical,horizontal,horizontal,vertical,horizontal,horizontal
1c,22,100165,4,42,234,21,F,NA,variable,homogeneous,6,present,0.839630126953125,1,horizontal,horizontal,1,0.811761713027954,green,2,3,1036.43188291453,695.524681321058,1000.94274216971,443.006323791957,835.489140744817,852.518357529101,1036.43188291453,695.524681321058,1000.94274216971,443.006323791957,764.510859255183,347.4816424709,563.568117085469,504.475318678942,599.057257830286,756.993676208043,0,4,0,0,0,0,vertical,horizontal,horizontal,horizontal,vertical,vertical
1c,22,100165,4,43,235,21,F,NA,variable,homogeneous,4,absent,0.66933012008667,1,vertical,vertical,1,1.03528796566857,red,3,NaN,768.923317431687,346.900731331463,NaN,NaN,831.076682568313,853.099268668537,1053.09926866854,568.923317431687,768.923317431687,346.900731331463,546.900731331463,631.076682568313,0,0,0,0,0,0,4,0,NaN,NaN,vertical,vertical,vertical,vertical,none,none
1c,22,100165,4,44,236,21,F,NA,variable,homogeneous,3,present,0.496569156646729,0,vertical,horizontal,1,0.682351777288649,red,1,2,716.980120613425,841.107236777826,1050.31493177915,551.343706178981,716.980120613425,841.107236777826,1050.31493177915,551.343706178981,632.704947607421,407.549057043193,0,0,0,0,0,0,4,0,0,NaN,NaN,NaN,vertical,vertical,horizontal,none,none,none
1c,22,100165,4,45,237,21,F,NA,variable,homogeneous,6,absent,0.471826076507568,0,vertical,horizontal,1,0.647058158450656,red,4,NaN,716.980120613425,358.892763222174,NaN,NaN,883.019879386575,841.107236777826,1050.31493177915,648.656293821019,967.295052392579,407.549057043193,716.980120613425,358.892763222174,549.685068220846,551.343706178981,632.704947607421,792.450942956807,0,0,0,4,0,0,horizontal,horizontal,vertical,vertical,horizontal,vertical
1c,22,100165,4,46,238,21,F,NA,variable,homogeneous,6,present,0.917987108230591,1,vertical,vertical,1,1.02352342605591,red,2,1,931.334709102064,818.577661679039,676.373546837184,823.028025320546,676.373546837184,823.028025320546,931.334709102064,818.577661679039,1054.96116226488,595.549636358493,923.626453162816,376.971974679454,668.665290897936,381.422338320961,545.03883773512,604.450363641507,0,4,0,0,0,0,horizontal,vertical,horizontal,horizontal,horizontal,vertical
1c,22,100165,4,47,239,21,F,NA,variable,homogeneous,5,absent,0.55649209022522,1,horizontal,horizontal,1,0.79999717341529,red,4,NaN,738.309916622085,352.574589799621,NaN,NaN,704.475318678942,836.431882914531,995.341332995339,763.910840470068,1016.25226451989,464.870587620533,738.309916622085,352.574589799621,545.621167183745,582.212099195248,0,0,0,0,0,4,0,NaN,horizontal,vertical,vertical,horizontal,vertical,none
1c,22,100165,4,48,240,21,F,NA,variable,homogeneous,4,absent,0.4615638256073,1,horizontal,horizontal,1,1.08234612411923,green,4,NaN,548.13947314824,560.109211414741,NaN,NaN,760.109211414741,851.86052685176,1051.86052685176,639.890788585259,839.890788585259,348.13947314824,548.13947314824,560.109211414741,0,0,0,0,0,0,0,4,NaN,NaN,vertical,horizontal,horizontal,horizontal,none,none
1c,22,100165,4,49,241,21,F,NA,variable,homogeneous,3,absent,0.720752954483032,1,horizontal,horizontal,1,1.09411066373189,red,1,NaN,696.282156015671,832.954091698863,NaN,NaN,696.282156015671,832.954091698863,1053.60308331891,573.345241866748,650.114760665419,393.700666434388,0,0,0,0,0,0,4,0,0,NaN,NaN,NaN,horizontal,vertical,vertical,none,none,none
1c,22,100165,4,50,242,21,F,NA,variable,homogeneous,5,present,0.666595935821533,1,vertical,vertical,1,0.764703554577298,green,5,4,545.155339110131,608.899371659138,712.784863451954,360.378381699593,729.712474266665,845.121732464271,1011.40458100154,742.594190385041,1000.94274216971,443.006323791957,712.784863451954,360.378381699593,545.155339110131,608.899371659138,0,0,0,0,0,0,4,NaN,vertical,horizontal,horizontal,vertical,vertical,none
1c,22,100165,4,51,243,21,F,NA,variable,homogeneous,5,absent,0.616245031356812,1,vertical,vertical,1,0.611764539612664,green,2,NaN,1042.51941165526,521.200666434388,NaN,NaN,949.885239334581,806.299333565612,1042.51941165526,521.200666434388,800,345,557.480588344736,521.200666434388,650.114760665419,806.299333565612,0,0,0,4,0,0,0,NaN,vertical,vertical,horizontal,horizontal,vertical,none
1c,22,100165,4,52,244,21,F,NA,variable,homogeneous,4,absent,0.602718114852905,1,vertical,vertical,1,0.694116316901313,red,4,NaN,554.878267535729,670.287525733335,NaN,NaN,870.287525733335,845.121732464271,1045.12173246427,529.712474266665,729.712474266665,354.878267535729,554.878267535729,670.287525733335,0,0,0,0,0,0,0,4,NaN,NaN,horizontal,horizontal,horizontal,vertical,none,none
