experiment,subject,uniqueID,block,trial,trial_cumulative,age,gender,color_cond_blocking,color_history,shape_type,set_size,distractor,rt,acc,target_orient,response_key,response_made,iti,target_color,target_item,distractor_item,target_X,target_Y,distractor_X,distractor_Y,item1_X,item1_Y,item2_X,item2_Y,item3_X,item3_Y,item4_X,item4_Y,item5_X,item5_Y,item6_X,item6_Y,item1_shape,item2_shape,item3_shape,item4_shape,item5_shape,item6_shape,item1_line,item2_line,item3_line,item4_line,item5_line,item6_line
1c,23,100166,1,1,1,19,F,NA,variable,homogeneous,5,present,1.60323405265808,1,horizontal,horizontal,1,0.76470103263855,green,3,5,899.636437764765,365.271262369628,581.422338320961,731.334709102064,857.362518857686,848.464366520235,1054.0296480134,622.224714400653,899.636437764765,365.271262369628,607.549057043193,432.704947607421,581.422338320961,731.334709102064,0,0,0,0,4,0,0,NaN,horizontal,vertical,horizontal,horizontal,horizontal,none
1c,23,100166,1,2,2,19,F,NA,variable,homogeneous,3,absent,0.750346183776855,1,vertical,vertical,1,0.952930784225464,green,1,NaN,1013.86099482608,738.882953928832,NaN,NaN,1013.86099482608,738.882953928832,813.345668841951,345.349468637584,572.793336331966,715.767577433584,0,0,0,0,0,0,4,0,0,NaN,NaN,NaN,vertical,horizontal,horizontal,none,none,none
1c,23,100166,1,3,3,19,F,NA,variable,homogeneous,4,absent,0.738503932952881,0,horizontal,vertical,1,0.858815908432007,red,1,NaN,935.129412379467,816.252264519889,NaN,NaN,935.129412379467,816.252264519889,1016.25226451989,464.870587620533,664.870587620533,383.747735480111,583.747735480111,735.129412379467,0,0,0,0,4,0,0,0,NaN,NaN,horizontal,vertical,vertical,horizontal,none,none
1c,23,100166,1,4,4,19,F,NA,variable,homogeneous,4,absent,NaN,0,horizontal,none,0,0.894108986854553,green,2,NaN,989.501930496736,429.371695378491,NaN,NaN,970.628304621509,789.501930496736,989.501930496736,429.371695378491,629.371695378491,410.498069503264,610.498069503264,770.628304621509,0,0,0,0,0,4,0,0,NaN,NaN,horizontal,horizontal,horizontal,vertical,none,none
1c,23,100166,1,5,5,19,F,NA,variable,homogeneous,3,present,1.247318983078,1,vertical,vertical,1,0.788229751586914,green,3,1,570.807518193712,711.784642431215,1011.40458100154,742.594190385041,1011.40458100154,742.594190385041,817.787900804752,345.621167183745,570.807518193712,711.784642431215,0,0,0,0,0,0,0,0,4,NaN,NaN,NaN,horizontal,vertical,vertical,none,none,none
1c,23,100166,1,6,6,19,F,NA,variable,homogeneous,3,absent,0.848577976226807,1,horizontal,horizontal,1,1.01175258159637,red,1,NaN,839.890788585259,851.86052685176,NaN,NaN,839.890788585259,851.86052685176,998.172220171528,439.523300282291,561.936991243214,508.616172865948,0,0,0,0,0,0,4,0,0,NaN,NaN,NaN,horizontal,horizontal,vertical,none,none,none
1c,23,100166,1,7,7,19,F,NA,variable,homogeneous,3,absent,0.795628070831299,1,horizontal,horizontal,1,0.682350516319275,green,2,NaN,1051.12597701811,555.719714694933,NaN,NaN,712.784863451954,839.621618300407,1051.12597701811,555.719714694933,636.089159529932,404.658667004661,0,0,0,0,0,0,0,4,0,NaN,NaN,NaN,vertical,horizontal,vertical,none,none,none
1c,23,100166,1,8,8,19,F,NA,variable,homogeneous,6,present,1.16748404502869,1,horizontal,horizontal,1,0.98822386264801,green,4,6,782.212099195248,345.621167183745,588.595418998464,742.594190385041,817.787900804752,854.378832816255,1029.19248180629,711.784642431215,1011.40458100154,457.40580961496,782.212099195248,345.621167183745,570.807518193712,488.215357568785,588.595418998464,742.594190385041,0,0,0,4,0,0,horizontal,vertical,horizontal,horizontal,horizontal,horizontal
1c,23,100166,1,9,9,19,F,NA,variable,homogeneous,6,absent,0.740141868591309,1,horizontal,horizontal,1,0.658821797370911,green,1,NaN,708.616172865948,838.063008756786,NaN,NaN,708.616172865948,838.063008756786,960.476699717708,798.172220171528,1051.86052685176,560.109211414741,891.383827134052,361.936991243214,639.523300282292,401.827779828472,548.13947314824,639.890788585259,4,0,0,0,0,0,horizontal,vertical,vertical,horizontal,vertical,vertical
1c,23,100166,1,10,10,19,F,NA,variable,homogeneous,3,absent,0.59948992729187,1,vertical,vertical,1,0.811758470535278,red,2,NaN,1049.42763818712,653.017481158529,NaN,NaN,629.371695378491,789.501930496736,1049.42763818712,653.017481158529,721.200666434388,357.480588344736,0,0,0,0,0,0,0,4,0,NaN,NaN,NaN,horizontal,vertical,vertical,none,none,none
1c,23,100166,1,11,11,19,F,NA,variable,homogeneous,6,present,0.763582944869995,1,vertical,vertical,1,0.776465392112732,green,1,6,755.719714694933,851.125977018113,560.378381699593,687.215136548046,755.719714694933,851.125977018113,995.341332995339,763.910840470068,1039.62161830041,512.784863451954,844.280285305067,348.874022981887,604.658667004661,436.089159529932,560.378381699593,687.215136548046,4,0,0,0,0,0,vertical,horizontal,horizontal,horizontal,horizontal,vertical
1c,23,100166,1,12,12,19,F,NA,variable,homogeneous,4,present,0.684442043304443,1,vertical,vertical,1,0.870580267906189,green,2,4,1045.12173246427,529.712474266665,554.878267535729,670.287525733335,870.287525733335,845.121732464271,1045.12173246427,529.712474266665,729.712474266665,354.878267535729,554.878267535729,670.287525733335,0,0,0,0,0,4,0,0,NaN,NaN,horizontal,vertical,vertical,vertical,none,none
1c,23,100166,1,13,13,19,F,NA,variable,homogeneous,6,absent,0.635891199111938,1,horizontal,horizontal,1,1.08233873844147,red,2,NaN,1027.20666366803,715.767577433584,NaN,NaN,813.345668841951,854.650531362416,1027.20666366803,715.767577433584,1013.86099482608,461.117046071168,786.654331158049,345.349468637584,572.793336331966,484.232422566416,586.139005173917,738.882953928832,0,4,0,0,0,0,vertical,horizontal,vertical,vertical,vertical,horizontal
1c,23,100166,1,14,14,19,F,NA,variable,homogeneous,4,present,0.701828002929688,1,horizontal,horizontal,1,0.647057437896729,green,4,2,574.848363820974,719.715248510402,1025.15163617903,480.284751489598,919.715248510402,825.151636179026,1025.15163617903,480.284751489598,680.284751489598,374.848363820974,574.848363820974,719.715248510402,0,0,0,0,0,0,0,4,NaN,NaN,horizontal,vertical,vertical,horizontal,none,none
1c,23,100166,1,15,15,19,F,NA,variable,homogeneous,4,present,0.869247913360596,0,horizontal,vertical,1,0.870580267906189,red,4,1,547.481642470899,564.510859255183,764.510859255183,852.518357529101,764.510859255183,852.518357529101,1052.5183575291,635.489140744817,835.489140744817,347.4816424709,547.481642470899,564.510859255183,0,0,0,0,0,0,0,4,NaN,NaN,horizontal,horizontal,vertical,horizontal,none,none
1c,23,100166,1,16,16,19,F,NA,variable,homogeneous,6,present,0.852343082427979,0,vertical,horizontal,1,1.07057437896729,green,1,2,822.224714400653,854.029648013395,1031.10848569435,707.767656743878,822.224714400653,854.029648013395,1031.10848569435,707.767656743878,1008.88377129369,453.738008730483,777.775285599347,345.970351986605,568.891514305654,492.232343256122,591.116228706307,746.261991269517,4,0,0,0,0,0,vertical,horizontal,horizontal,horizontal,vertical,vertical
1c,23,100166,1,17,17,19,F,NA,variable,homogeneous,5,absent,0.874608039855957,1,horizontal,horizontal,1,0.847051548957825,green,3,NaN,919.715248510402,374.848363820974,NaN,NaN,835.489140744817,852.518357529101,1051.12597701811,644.280285305067,919.715248510402,374.848363820974,622.862115532956,416.568350913644,570.807518193712,711.784642431215,0,0,0,0,4,0,0,NaN,vertical,vertical,horizontal,vertical,vertical,none
1c,23,100166,1,18,18,19,F,NA,variable,homogeneous,4,present,1.14572691917419,1,vertical,vertical,1,0.670586156845093,green,4,3,604.658667004661,763.910840470068,636.089159529932,404.658667004661,963.910840470068,795.341332995339,995.341332995339,436.089159529932,636.089159529932,404.658667004661,604.658667004661,763.910840470068,0,0,0,0,0,0,0,4,NaN,NaN,vertical,horizontal,vertical,vertical,none,none
1c,23,100166,1,19,19,19,F,NA,variable,homogeneous,4,present,0.724678039550781,1,vertical,vertical,1,1.01175258159637,red,4,3,548.13947314824,560.109211414741,839.890788585259,348.13947314824,760.109211414741,851.86052685176,1051.86052685176,639.890788585259,839.890788585259,348.13947314824,548.13947314824,560.109211414741,0,0,0,0,0,0,0,4,NaN,NaN,vertical,vertical,horizontal,vertical,none,none
1c,23,100166,1,20,20,19,F,NA,variable,homogeneous,3,absent,0.701574087142944,1,vertical,vertical,1,0.894108986854553,red,3,NaN,552.574589799621,538.309916622085,NaN,NaN,870.287525733335,845.121732464271,977.137884467044,416.568350913644,552.574589799621,538.309916622085,0,0,0,0,0,0,0,0,4,NaN,NaN,NaN,vertical,horizontal,vertical,none,none,none
1c,23,100166,1,21,21,19,F,NA,variable,homogeneous,6,present,1.07420802116394,1,horizontal,horizontal,1,0.729407954216003,red,4,2,725.445215295702,356.142287229426,1048.46436652023,657.362518857686,874.554784704298,843.857712770574,1048.46436652023,657.362518857686,973.909581815937,413.504806087112,725.445215295702,356.142287229426,551.535633479765,542.637481142314,626.090418184063,786.495193912888,0,0,0,4,0,0,vertical,horizontal,vertical,horizontal,horizontal,vertical
1c,23,100166,1,22,22,19,F,NA,variable,homogeneous,5,present,1.00987696647644,1,horizontal,horizontal,1,0.694114875793457,red,3,5,956.993676208043,399.057257830286,554.878267535729,670.287525733335,791.100628340862,854.844660889869,1039.62161830041,687.215136548046,956.993676208043,399.057257830286,657.405809614959,388.595418998464,554.878267535729,670.287525733335,0,0,0,0,4,0,0,NaN,vertical,horizontal,horizontal,vertical,vertical,none
1c,23,100166,1,23,23,19,F,NA,variable,homogeneous,5,present,0.865448951721191,1,horizontal,horizontal,1,0.76470103263855,green,5,4,554.878267535729,670.287525733335,657.405809614959,388.595418998464,791.100628340862,854.844660889869,1039.62161830041,687.215136548046,956.993676208043,399.057257830286,657.405809614959,388.595418998464,554.878267535729,670.287525733335,0,0,0,0,0,0,4,NaN,vertical,vertical,vertical,horizontal,horizontal,none
1c,23,100166,1,24,24,19,F,NA,variable,homogeneous,3,present,0.780668020248413,1,horizontal,horizontal,1,0.894108986854553,green,1,2,725.445215295702,843.857712770574,1048.46436652023,542.637481142314,725.445215295702,843.857712770574,1048.46436652023,542.637481142314,626.090418184063,413.504806087112,0,0,0,0,0,0,4,0,0,NaN,NaN,NaN,horizontal,vertical,horizontal,none,none,none
1c,23,100166,1,25,25,19,F,NA,variable,homogeneous,5,absent,0.597279787063599,1,horizontal,horizontal,1,0.835287189483643,red,1,NaN,738.309916622085,847.425410200379,NaN,NaN,738.309916622085,847.425410200379,1016.25226451989,735.129412379467,995.341332995339,436.089159529932,704.475318678942,363.568117085469,545.621167183745,617.787900804752,0,0,4,0,0,0,0,NaN,horizontal,vertical,vertical,horizontal,vertical,none
1c,23,100166,1,26,26,19,F,NA,variable,homogeneous,5,present,0.624640941619873,1,vertical,vertical,1,0.76470103263855,red,5,1,545.349468637584,586.654331158049,708.616172865948,838.063008756786,708.616172865948,838.063008756786,998.172220171528,760.476699717708,1013.86099482608,461.117046071168,734.001143498857,353.688914296288,545.349468637584,586.654331158049,0,0,0,0,0,0,4,NaN,vertical,horizontal,vertical,vertical,vertical,none
1c,23,100166,1,27,27,19,F,NA,variable,homogeneous,4,present,0.532755136489868,1,vertical,vertical,1,0.976459503173828,red,4,1,557.480588344736,678.799333565612,878.799333565612,842.519411655264,878.799333565612,842.519411655264,1042.51941165526,521.200666434388,721.200666434388,357.480588344736,557.480588344736,678.799333565612,0,0,0,0,0,0,0,4,NaN,NaN,vertical,horizontal,horizontal,vertical,none,none
1c,23,100166,1,28,28,19,F,NA,variable,homogeneous,4,present,0.600849866867065,1,horizontal,horizontal,1,0.847051548957825,green,1,2,716.980120613425,841.107236777826,1041.10723677783,683.019879386575,716.980120613425,841.107236777826,1041.10723677783,683.019879386575,883.019879386575,358.892763222174,558.892763222174,516.980120613425,0,0,0,0,4,0,0,0,NaN,NaN,horizontal,vertical,vertical,horizontal,none,none
1c,23,100166,1,29,29,19,F,NA,variable,homogeneous,5,absent,0.838366031646729,1,horizontal,horizontal,1,0.670586156845093,green,2,NaN,953.462830903772,803.65205506206,NaN,NaN,653.738008730483,808.883771293693,953.462830903772,803.65205506206,1041.10723677783,516.980120613425,795.549636358493,345.03883773512,556.142287229426,525.445215295702,0,0,0,4,0,0,0,NaN,vertical,horizontal,horizontal,vertical,horizontal,none
1c,23,100166,1,30,30,19,F,NA,variable,homogeneous,4,absent,0.664744138717651,1,horizontal,horizontal,1,0.670586156845093,red,2,NaN,1054.37883281626,582.212099195248,NaN,NaN,817.787900804752,854.378832816255,1054.37883281626,582.212099195248,782.212099195248,345.621167183745,545.621167183745,617.787900804752,0,0,0,0,0,4,0,0,NaN,NaN,horizontal,horizontal,horizontal,vertical,none,none
1c,23,100166,1,31,31,19,F,NA,variable,homogeneous,3,present,0.733468055725098,0,horizontal,vertical,1,0.76470103263855,green,3,1,567.045908301137,703.717843984329,1006.29933356561,749.885239334581,1006.29933356561,749.885239334581,826.654758133252,346.39691668109,567.045908301137,703.717843984329,0,0,0,0,0,0,0,0,4,NaN,NaN,NaN,vertical,vertical,horizontal,none,none,none
1c,23,100166,1,32,32,19,F,NA,variable,homogeneous,6,absent,0.946126222610474,1,vertical,vertical,1,0.694114875793457,red,4,NaN,899.636437764765,365.271262369628,NaN,NaN,700.363562235235,834.728737630372,953.462830903772,803.65205506206,1053.09926866854,568.923317431687,899.636437764765,365.271262369628,646.537169096228,396.34794493794,546.900731331463,631.076682568313,0,0,0,4,0,0,vertical,horizontal,vertical,vertical,horizontal,horizontal
1c,23,100166,1,33,33,19,F,NA,variable,homogeneous,6,absent,0.610754013061523,1,horizontal,horizontal,1,0.870580267906189,green,6,NaN,548.874022981887,644.280285305067,NaN,NaN,712.784863451954,839.621618300407,963.910840470068,795.341332995339,1051.12597701811,555.719714694933,887.215136548046,360.378381699593,636.089159529932,404.658667004661,548.874022981887,644.280285305067,0,0,0,0,0,4,horizontal,horizontal,horizontal,horizontal,vertical,horizontal
1c,23,100166,1,34,34,19,F,NA,variable,homogeneous,6,present,1.11910104751587,1,vertical,vertical,1,1.01175258159637,red,5,6,563.568117085469,504.475318678942,599.057257830286,756.993676208043,835.489140744817,852.518357529101,1036.43188291453,695.524681321058,1000.94274216971,443.006323791957,764.510859255183,347.4816424709,563.568117085469,504.475318678942,599.057257830286,756.993676208043,0,0,0,0,4,0,horizontal,vertical,vertical,vertical,vertical,vertical
1c,23,100166,1,35,35,19,F,NA,variable,homogeneous,5,absent,0.707794904708862,1,vertical,vertical,1,0.882344627380371,green,3,NaN,927.5,379.163522034968,NaN,NaN,826.654758133252,853.60308331891,1049.42763818712,653.017481158529,927.5,379.163522034968,629.371695378491,410.498069503264,567.045908301137,703.717843984329,0,0,0,0,4,0,0,NaN,horizontal,vertical,vertical,vertical,vertical,none
1c,23,100166,1,36,36,19,F,NA,variable,homogeneous,4,present,0.951586008071899,1,horizontal,horizontal,1,0.670586156845093,red,3,1,632.704947607421,407.549057043193,967.295052392579,792.450942956807,967.295052392579,792.450942956807,992.450942956807,432.704947607421,632.704947607421,407.549057043193,607.549057043193,767.295052392579,0,0,0,0,0,0,4,0,NaN,NaN,vertical,horizontal,horizontal,horizontal,none,none
1c,23,100166,1,37,37,19,F,NA,variable,homogeneous,6,absent,0.665490865707397,1,vertical,vertical,1,0.729407954216003,green,2,NaN,956.993676208043,800.942742169714,NaN,NaN,704.475318678942,836.431882914531,956.993676208043,800.942742169714,1052.5183575291,564.510859255183,895.524681321058,363.568117085469,643.006323791957,399.057257830286,547.481642470899,635.489140744817,0,4,0,0,0,0,vertical,vertical,vertical,horizontal,vertical,vertical
1c,23,100166,1,38,38,19,F,NA,variable,homogeneous,3,present,0.618489027023315,1,vertical,vertical,1,0.976459503173828,green,2,3,1029.19248180629,711.784642431215,782.212099195248,345.621167183745,588.595418998464,742.594190385041,1029.19248180629,711.784642431215,782.212099195248,345.621167183745,0,0,0,0,0,0,0,4,0,NaN,NaN,NaN,vertical,vertical,vertical,none,none,none
1c,23,100166,1,39,39,19,F,NA,variable,homogeneous,5,present,1.11965298652649,1,vertical,vertical,1,0.635293078422546,green,4,3,725.445215295702,356.142287229426,1008.88377129369,453.738008730483,716.980120613425,841.107236777826,1003.65205506206,753.462830903772,1008.88377129369,453.738008730483,725.445215295702,356.142287229426,545.03883773512,595.549636358493,0,0,0,0,0,4,0,NaN,horizontal,vertical,vertical,vertical,vertical,none
1c,23,100166,1,40,40,19,F,NA,variable,homogeneous,6,present,1.15917277336121,1,horizontal,horizontal,1,0.847051548957825,red,1,3,853.017481158529,849.42763818712,989.501930496736,429.371695378491,853.017481158529,849.42763818712,1042.51941165526,678.799333565612,989.501930496736,429.371695378491,746.982518841471,350.57236181288,557.480588344736,521.200666434388,610.498069503264,770.628304621509,4,0,0,0,0,0,horizontal,horizontal,horizontal,vertical,horizontal,vertical
1c,23,100166,1,41,41,19,F,NA,variable,homogeneous,4,absent,0.689206123352051,1,vertical,vertical,1,0.729407954216003,red,4,NaN,546.39691668109,573.345241866748,NaN,NaN,773.345241866748,853.60308331891,1053.60308331891,626.654758133252,826.654758133252,346.39691668109,546.39691668109,573.345241866748,0,0,0,0,0,0,0,4,NaN,NaN,horizontal,vertical,horizontal,vertical,none,none
1c,23,100166,1,42,42,19,F,NA,variable,homogeneous,6,absent,0.648290157318115,1,horizontal,horizontal,1,1.0588100194931,red,1,NaN,923.626453162816,823.028025320546,NaN,NaN,923.626453162816,823.028025320546,1054.96116226488,604.450363641507,931.334709102064,381.422338320961,676.373546837184,376.971974679454,545.03883773512,595.549636358493,668.665290897936,818.577661679039,4,0,0,0,0,0,horizontal,horizontal,horizontal,horizontal,horizontal,vertical
1c,23,100166,1,43,43,19,F,NA,variable,homogeneous,4,absent,0.800240993499756,1,vertical,vertical,1,0.741172313690186,green,4,NaN,583.747735480111,735.129412379467,NaN,NaN,935.129412379467,816.252264519889,1016.25226451989,464.870587620533,664.870587620533,383.747735480111,583.747735480111,735.129412379467,0,0,0,0,0,0,0,4,NaN,NaN,vertical,vertical,vertical,vertical,none,none
1c,23,100166,1,44,44,19,F,NA,variable,homogeneous,6,absent,0.639394044876099,1,vertical,vertical,1,0.741172313690186,green,1,NaN,831.076682568313,853.099268668537,NaN,NaN,831.076682568313,853.099268668537,1034.72873763037,699.636437764765,1003.65205506206,446.537169096228,768.923317431687,346.900731331463,565.271262369628,500.363562235235,596.34794493794,753.462830903772,4,0,0,0,0,0,vertical,vertical,horizontal,vertical,horizontal,vertical
1c,23,100166,1,45,45,19,F,NA,variable,homogeneous,5,absent,0.654006958007812,1,horizontal,horizontal,1,0.682350516319275,red,2,NaN,1011.40458100154,742.594190385041,NaN,NaN,729.712474266665,845.121732464271,1011.40458100154,742.594190385041,1000.94274216971,443.006323791957,712.784863451954,360.378381699593,545.155339110131,608.899371659138,0,0,0,4,0,0,0,NaN,horizontal,horizontal,vertical,vertical,horizontal,none
1c,23,100166,1,46,46,19,F,NA,variable,homogeneous,4,absent,0.708201885223389,1,vertical,vertical,1,0.647057437896729,red,3,NaN,977.137884467044,416.568350913644,NaN,NaN,622.862115532956,783.431649086356,983.431649086356,777.137884467044,977.137884467044,416.568350913644,616.568350913644,422.862115532956,0,0,0,0,0,0,4,0,NaN,NaN,vertical,vertical,vertical,vertical,none,none
1c,23,100166,1,47,47,19,F,NA,variable,homogeneous,3,present,0.545885801315308,0,vertical,horizontal,1,0.964695143699646,red,1,3,593.700666434388,749.885239334581,773.345241866748,346.39691668109,593.700666434388,749.885239334581,1032.95409169886,703.717843984329,773.345241866748,346.39691668109,0,0,0,0,0,0,4,0,0,NaN,NaN,NaN,vertical,horizontal,horizontal,none,none,none
1c,23,100166,1,48,48,19,F,NA,variable,homogeneous,5,absent,0.743569850921631,1,vertical,vertical,1,0.9294020652771,red,4,NaN,764.510859255183,347.4816424709,NaN,NaN,680.284751489598,825.151636179026,977.137884467044,783.431649086356,1029.19248180629,488.215357568785,764.510859255183,347.4816424709,548.874022981887,555.719714694933,0,0,0,0,0,4,0,NaN,horizontal,vertical,horizontal,vertical,horizontal,none
1c,23,100166,1,49,49,19,F,NA,variable,homogeneous,5,absent,0.698836088180542,1,vertical,vertical,1,0.811758470535278,red,4,NaN,604.658667004661,436.089159529932,NaN,NaN,861.690083377915,847.425410200379,1054.37883281626,617.787900804752,895.524681321058,363.568117085469,604.658667004661,436.089159529932,583.747735480111,735.129412379467,0,0,0,0,0,4,0,NaN,horizontal,horizontal,horizontal,vertical,vertical,none
1c,23,100166,1,50,50,19,F,NA,variable,homogeneous,3,absent,0.620744943618774,1,vertical,vertical,1,0.98822386264801,green,1,NaN,613.504806087112,773.909581815937,NaN,NaN,613.504806087112,773.909581815937,1043.85771277057,674.554784704298,742.637481142314,351.535633479765,0,0,0,0,0,0,4,0,0,NaN,NaN,NaN,vertical,horizontal,vertical,none,none,none
1c,23,100166,1,51,51,19,F,NA,variable,homogeneous,5,present,0.668389081954956,1,horizontal,horizontal,1,0.752936673164368,red,1,4,853.017481158529,849.42763818712,610.498069503264,429.371695378491,853.017481158529,849.42763818712,1053.60308331891,626.654758133252,903.717843984329,367.045908301137,610.498069503264,429.371695378491,579.163522034968,727.5,0,0,4,0,0,0,0,NaN,horizontal,horizontal,horizontal,vertical,horizontal,none
1c,23,100166,1,52,52,19,F,NA,variable,homogeneous,6,absent,0.60716986656189,0,vertical,horizontal,1,0.670586156845093,red,4,NaN,831.076682568313,346.900731331463,NaN,NaN,768.923317431687,853.099268668537,1003.65205506206,753.462830903772,1034.72873763037,500.363562235235,831.076682568313,346.900731331463,596.34794493794,446.537169096228,565.271262369628,699.636437764765,0,0,0,4,0,0,horizontal,vertical,horizontal,vertical,horizontal,horizontal
1c,23,100166,1,53,53,19,F,NA,variable,homogeneous,4,absent,0.593694925308228,1,horizontal,horizontal,1,0.905873346328735,green,1,NaN,653.738008730483,808.883771293693,NaN,NaN,653.738008730483,808.883771293693,1008.88377129369,746.261991269517,946.261991269517,391.116228706307,591.116228706307,453.738008730483,0,0,0,0,4,0,0,0,NaN,NaN,horizontal,horizontal,horizontal,horizontal,none,none
1c,23,100166,1,54,54,19,F,NA,variable,homogeneous,3,absent,0.789673089981079,1,horizontal,horizontal,1,1.01175258159637,green,3,NaN,616.568350913644,422.862115532956,NaN,NaN,738.309916622085,847.425410200379,1045.12173246427,529.712474266665,616.568350913644,422.862115532956,0,0,0,0,0,0,0,0,4,NaN,NaN,NaN,vertical,vertical,horizontal,none,none,none
1c,23,100166,1,55,55,19,F,NA,variable,homogeneous,3,present,0.817766904830933,1,horizontal,horizontal,1,1.01175258159637,red,2,1,1053.09926866854,568.923317431687,700.363562235235,834.728737630372,700.363562235235,834.728737630372,1053.09926866854,568.923317431687,646.537169096228,396.34794493794,0,0,0,0,0,0,0,4,0,NaN,NaN,NaN,horizontal,horizontal,horizontal,none,none,none
1c,23,100166,1,56,56,19,F,NA,variable,homogeneous,3,present,0.555124998092651,1,vertical,vertical,1,1.02351694107056,red,3,2,574.848363820974,719.715248510402,808.899371659138,345.155339110131,1016.25226451989,735.129412379467,808.899371659138,345.155339110131,574.848363820974,719.715248510402,0,0,0,0,0,0,0,0,4,NaN,NaN,NaN,horizontal,horizontal,vertical,none,none,none
1c,23,100166,1,57,57,19,F,NA,variable,homogeneous,3,present,0.555176973342896,0,horizontal,vertical,1,0.635293078422546,red,2,1,1046.31108570371,534.001143498857,734.001143498857,846.311085703712,734.001143498857,846.311085703712,1046.31108570371,534.001143498857,619.68777079743,419.68777079743,0,0,0,0,0,0,0,4,0,NaN,NaN,NaN,horizontal,horizontal,horizontal,none,none,none
1c,23,100166,1,58,58,19,F,NA,variable,homogeneous,5,present,0.627681016921997,1,vertical,vertical,1,0.658821797370911,red,3,5,1036.43188291453,504.475318678942,552.574589799621,538.309916622085,664.870587620533,816.252264519889,963.910840470068,795.341332995339,1036.43188291453,504.475318678942,782.212099195248,345.621167183745,552.574589799621,538.309916622085,0,0,0,0,4,0,0,NaN,horizontal,horizontal,vertical,vertical,horizontal,none
1c,23,100166,1,59,59,19,F,NA,variable,homogeneous,4,absent,0.581562042236328,0,vertical,horizontal,1,1.0588100194931,green,1,NaN,977.137884467044,783.431649086356,NaN,NaN,977.137884467044,783.431649086356,983.431649086356,422.862115532956,622.862115532956,416.568350913644,616.568350913644,777.137884467044,0,0,0,0,4,0,0,0,NaN,NaN,vertical,vertical,horizontal,horizontal,none,none
1c,23,100166,1,60,60,19,F,NA,variable,homogeneous,6,present,0.965091943740845,1,horizontal,horizontal,1,0.788229751586914,green,4,5,808.899371659138,345.155339110131,583.747735480111,464.870587620533,791.100628340862,854.844660889869,1016.25226451989,735.129412379467,1025.15163617903,480.284751489598,808.899371659138,345.155339110131,583.747735480111,464.870587620533,574.848363820974,719.715248510402,0,0,0,4,0,0,horizontal,vertical,vertical,horizontal,vertical,horizontal
1c,23,100166,1,61,61,19,F,NA,variable,homogeneous,6,present,0.761429786682129,1,vertical,vertical,1,1.03528130054474,red,3,4,1041.10723677783,516.980120613425,848.656293821019,349.685068220846,751.343706178981,850.314931779154,992.450942956807,767.295052392579,1041.10723677783,516.980120613425,848.656293821019,349.685068220846,607.549057043193,432.704947607421,558.892763222174,683.019879386575,0,0,4,0,0,0,horizontal,horizontal,vertical,vertical,horizontal,vertical
1c,23,100166,1,62,62,19,F,NA,variable,homogeneous,5,present,0.846317052841187,1,vertical,vertical,1,1.07057437896729,green,1,5,650.114760665419,806.299333565612,557.480588344736,521.200666434388,650.114760665419,806.299333565612,949.885239334581,806.299333565612,1042.51941165526,521.200666434388,800,345,557.480588344736,521.200666434388,0,0,4,0,0,0,0,NaN,vertical,horizontal,vertical,vertical,vertical,none
1c,23,100166,1,63,63,19,F,NA,variable,homogeneous,3,absent,0.769099950790405,1,horizontal,horizontal,1,0.882344627380371,red,2,NaN,1043.85771277057,674.554784704298,NaN,NaN,613.504806087112,773.909581815937,1043.85771277057,674.554784704298,742.637481142314,351.535633479765,0,0,0,0,0,0,0,4,0,NaN,NaN,NaN,vertical,horizontal,horizontal,none,none,none
1c,23,100166,1,64,64,19,F,NA,variable,homogeneous,5,absent,0.678790092468262,1,vertical,vertical,1,0.705879235267639,green,2,NaN,1039.62161830041,687.215136548046,NaN,NaN,791.100628340862,854.844660889869,1039.62161830041,687.215136548046,956.993676208043,399.057257830286,657.405809614959,388.595418998464,554.878267535729,670.287525733335,0,0,0,4,0,0,0,NaN,horizontal,vertical,vertical,horizontal,vertical,none
1c,23,100166,2,1,65,19,F,NA,variable,homogeneous,3,absent,0.673559188842773,1,vertical,vertical,1,0.882344627380371,red,2,NaN,1038.06300875679,691.383827134052,NaN,NaN,601.827779828472,760.476699717708,1038.06300875679,691.383827134052,760.109211414741,348.13947314824,0,0,0,0,0,0,0,4,0,NaN,NaN,NaN,vertical,vertical,vertical,none,none,none
1c,23,100166,2,2,66,19,F,NA,variable,homogeneous,4,absent,1.38363099098206,1,vertical,vertical,1,0.623528718948364,green,2,NaN,1031.10848569435,492.232343256122,NaN,NaN,907.767656743878,831.108485694346,1031.10848569435,492.232343256122,692.232343256122,368.891514305654,568.891514305654,707.767656743878,0,0,0,0,0,4,0,0,NaN,NaN,vertical,vertical,vertical,horizontal,none,none
1c,23,100166,2,3,67,19,F,NA,variable,homogeneous,4,absent,0.590245008468628,1,horizontal,horizontal,1,0.941166424751282,red,1,NaN,768.923317431687,853.099268668537,NaN,NaN,768.923317431687,853.099268668537,1053.09926866854,631.076682568313,831.076682568313,346.900731331463,546.900731331463,568.923317431687,0,0,0,0,4,0,0,0,NaN,NaN,horizontal,horizontal,vertical,vertical,none,none
1c,23,100166,2,4,68,19,F,NA,variable,homogeneous,3,present,1.21399402618408,1,horizontal,horizontal,1,0.776465392112732,green,3,1,704.475318678942,363.568117085469,643.006323791957,800.942742169714,643.006323791957,800.942742169714,1052.5183575291,635.489140744817,704.475318678942,363.568117085469,0,0,0,0,0,0,0,0,4,NaN,NaN,NaN,horizontal,vertical,horizontal,none,none,none
1c,23,100166,2,5,69,19,F,NA,variable,homogeneous,5,present,0.937648057937622,1,vertical,vertical,1,0.76470103263855,green,1,2,903.717843984329,832.954091698863,1053.60308331891,573.345241866748,903.717843984329,832.954091698863,1053.60308331891,573.345241866748,853.017481158529,350.57236181288,579.163522034968,472.5,610.498069503264,770.628304621509,0,0,4,0,0,0,0,NaN,vertical,horizontal,horizontal,vertical,horizontal,none
1c,23,100166,2,6,70,19,F,NA,variable,homogeneous,5,present,0.742414951324463,1,horizontal,horizontal,1,1.09410309791565,green,4,3,629.371695378491,410.498069503264,927.5,379.163522034968,826.654758133252,853.60308331891,1049.42763818712,653.017481158529,927.5,379.163522034968,629.371695378491,410.498069503264,567.045908301137,703.717843984329,0,0,0,0,0,4,0,NaN,vertical,horizontal,horizontal,horizontal,vertical,none
1c,23,100166,2,7,71,19,F,NA,variable,homogeneous,3,absent,0.566525220870972,1,vertical,vertical,1,0.847051548957825,red,1,NaN,622.862115532956,783.431649086356,NaN,NaN,622.862115532956,783.431649086356,1047.42541020038,661.690083377915,729.712474266665,354.878267535729,0,0,0,0,0,0,4,0,0,NaN,NaN,NaN,vertical,horizontal,horizontal,none,none,none
1c,23,100166,2,8,72,19,F,NA,variable,homogeneous,5,absent,0.557270050048828,1,vertical,vertical,1,0.952930784225464,red,5,NaN,547.481642470899,635.489140744817,NaN,NaN,755.719714694933,851.125977018113,1025.15163617903,719.715248510402,983.431649086356,422.862115532956,688.215357568785,370.807518193712,547.481642470899,635.489140744817,0,0,0,0,0,0,4,NaN,horizontal,horizontal,horizontal,horizontal,vertical,none
1c,23,100166,2,9,73,19,F,NA,variable,homogeneous,5,present,0.7590651512146,1,horizontal,horizontal,1,0.9294020652771,green,2,1,1048.46436652023,657.362518857686,822.224714400653,854.029648013395,822.224714400653,854.029648013395,1048.46436652023,657.362518857686,931.334709102064,381.422338320961,632.704947607421,407.549057043193,565.271262369628,699.636437764765,0,0,0,4,0,0,0,NaN,vertical,horizontal,horizontal,vertical,vertical,none
1c,23,100166,2,10,74,19,F,NA,variable,homogeneous,3,present,0.681922912597656,1,vertical,vertical,1,0.976459503173828,green,3,2,593.700666434388,450.114760665419,1032.95409169886,496.282156015671,773.345241866748,853.60308331891,1032.95409169886,496.282156015671,593.700666434388,450.114760665419,0,0,0,0,0,0,0,0,4,NaN,NaN,NaN,vertical,vertical,vertical,none,none,none
1c,23,100166,2,11,75,19,F,NA,variable,homogeneous,6,absent,0.627334117889404,1,horizontal,horizontal,1,0.976459503173828,red,4,NaN,672.5,379.163522034968,NaN,NaN,927.5,820.836477965032,1055,600,927.5,379.163522034968,672.5,379.163522034968,545,600,672.5,820.836477965032,0,0,0,4,0,0,vertical,horizontal,vertical,horizontal,horizontal,vertical
1c,23,100166,2,12,76,19,F,NA,variable,homogeneous,4,present,0.577535152435303,1,horizontal,horizontal,1,0.870580267906189,red,4,1,581.422338320961,731.334709102064,931.334709102064,818.577661679039,931.334709102064,818.577661679039,1018.57766167904,468.665290897936,668.665290897936,381.422338320961,581.422338320961,731.334709102064,0,0,0,0,0,0,0,4,NaN,NaN,horizontal,vertical,horizontal,horizontal,none,none
1c,23,100166,2,13,77,19,F,NA,variable,homogeneous,4,present,0.565691947937012,1,horizontal,horizontal,1,1.02351694107056,green,4,2,588.595418998464,742.594190385041,1011.40458100154,457.40580961496,942.594190385041,811.404581001536,1011.40458100154,457.40580961496,657.405809614959,388.595418998464,588.595418998464,742.594190385041,0,0,0,0,0,0,0,4,NaN,NaN,horizontal,horizontal,horizontal,horizontal,none,none
1c,23,100166,2,14,78,19,F,NA,variable,homogeneous,4,present,0.6754150390625,1,vertical,vertical,1,0.705879235267639,green,1,3,817.787900804752,854.378832816255,782.212099195248,345.621167183745,817.787900804752,854.378832816255,1054.37883281626,582.212099195248,782.212099195248,345.621167183745,545.621167183745,617.787900804752,0,0,0,0,4,0,0,0,NaN,NaN,vertical,horizontal,vertical,vertical,none,none
1c,23,100166,2,15,79,19,F,NA,variable,homogeneous,3,absent,0.736496925354004,1,horizontal,horizontal,1,0.952930784225464,green,2,NaN,915.767577433584,372.793336331966,NaN,NaN,938.882953928832,813.860994826083,915.767577433584,372.793336331966,545.349468637584,613.345668841951,0,0,0,0,0,0,0,4,0,NaN,NaN,NaN,vertical,horizontal,horizontal,none,none,none
1c,23,100166,2,16,80,19,F,NA,variable,homogeneous,6,present,0.663316011428833,1,vertical,vertical,1,0.611764359474182,green,4,1,729.712474266665,354.878267535729,870.287525733335,845.121732464271,870.287525733335,845.121732464271,1047.42541020038,661.690083377915,977.137884467044,416.568350913644,729.712474266665,354.878267535729,552.574589799621,538.309916622085,622.862115532956,783.431649086356,0,0,0,4,0,0,vertical,horizontal,vertical,vertical,vertical,horizontal
1c,23,100166,2,17,81,19,F,NA,variable,homogeneous,3,present,0.619985818862915,1,vertical,vertical,1,0.76470103263855,red,2,1,938.882953928832,386.139005173917,915.767577433584,827.206663668034,915.767577433584,827.206663668034,938.882953928832,386.139005173917,545.349468637584,586.654331158049,0,0,0,0,0,0,0,4,0,NaN,NaN,NaN,vertical,vertical,horizontal,none,none,none
1c,23,100166,2,18,82,19,F,NA,variable,homogeneous,5,absent,0.77638578414917,1,horizontal,horizontal,1,0.788229751586914,green,4,NaN,738.309916622085,352.574589799621,NaN,NaN,704.475318678942,836.431882914531,995.341332995339,763.910840470068,1016.25226451989,464.870587620533,738.309916622085,352.574589799621,545.621167183745,582.212099195248,0,0,0,0,0,4,0,NaN,horizontal,horizontal,vertical,horizontal,horizontal,none
1c,23,100166,2,19,83,19,F,NA,variable,homogeneous,4,absent,0.513805866241455,1,horizontal,horizontal,1,0.882344627380371,green,3,NaN,773.345241866748,346.39691668109,NaN,NaN,826.654758133252,853.60308331891,1053.60308331891,573.345241866748,773.345241866748,346.39691668109,546.39691668109,626.654758133252,0,0,0,0,0,0,4,0,NaN,NaN,horizontal,vertical,horizontal,vertical,none,none
1c,23,100166,2,20,84,19,F,NA,variable,homogeneous,5,absent,0.597026109695435,1,vertical,vertical,1,1.04704566001892,red,5,NaN,643.006323791957,800.942742169714,NaN,NaN,942.594190385041,811.404581001536,1045.12173246427,529.712474266665,808.899371659138,345.155339110131,560.378381699593,512.784863451954,643.006323791957,800.942742169714,0,0,0,0,0,0,4,NaN,vertical,horizontal,horizontal,vertical,vertical,none
1c,23,100166,2,21,85,19,F,NA,variable,homogeneous,6,absent,0.792716026306152,1,vertical,vertical,1,0.964695143699646,red,5,NaN,619.68777079743,419.68777079743,NaN,NaN,734.001143498857,846.311085703712,980.31222920257,780.31222920257,1046.31108570371,534.001143498857,865.998856501143,353.688914296288,619.68777079743,419.68777079743,553.688914296288,665.998856501143,0,0,0,0,4,0,horizontal,horizontal,horizontal,vertical,vertical,horizontal
1c,23,100166,2,22,86,19,F,NA,variable,homogeneous,3,absent,0.57554817199707,1,horizontal,horizontal,1,0.952930784225464,red,2,NaN,1054.84466088987,591.100628340862,NaN,NaN,680.284751489598,825.151636179026,1054.84466088987,591.100628340862,664.870587620533,383.747735480111,0,0,0,0,0,0,0,4,0,NaN,NaN,NaN,horizontal,horizontal,vertical,none,none,none
1c,23,100166,2,23,87,19,F,NA,variable,homogeneous,6,absent,0.60135817527771,1,horizontal,horizontal,1,0.905873346328735,green,3,NaN,931.334709102064,381.422338320961,NaN,NaN,923.626453162816,823.028025320546,1054.96116226488,604.450363641507,931.334709102064,381.422338320961,676.373546837184,376.971974679454,545.03883773512,595.549636358493,668.665290897936,818.577661679039,0,0,4,0,0,0,vertical,vertical,horizontal,horizontal,horizontal,horizontal
1c,23,100166,2,24,88,19,F,NA,variable,homogeneous,3,present,0.686779975891113,1,horizontal,horizontal,1,0.647057437896729,green,2,3,800,345,579.163522034968,727.5,1020.83647796503,727.5,800,345,579.163522034968,727.5,0,0,0,0,0,0,0,4,0,NaN,NaN,NaN,horizontal,horizontal,horizontal,none,none,none
1c,23,100166,2,25,89,19,F,NA,variable,homogeneous,5,absent,0.653175115585327,0,horizontal,vertical,1,0.635293078422546,red,2,NaN,1031.10848569435,707.767656743878,NaN,NaN,768.923317431687,853.099268668537,1031.10848569435,707.767656743878,973.909581815937,413.504806087112,676.373546837184,376.971974679454,549.685068220846,648.656293821019,0,0,0,4,0,0,0,NaN,horizontal,horizontal,vertical,vertical,vertical,none
1c,23,100166,2,26,90,19,F,NA,variable,homogeneous,3,absent,0.713301181793213,1,horizontal,horizontal,1,0.9294020652771,red,1,NaN,895.524681321058,836.431882914531,NaN,NaN,895.524681321058,836.431882914531,956.993676208043,399.057257830286,547.481642470899,564.510859255183,0,0,0,0,0,0,4,0,0,NaN,NaN,NaN,horizontal,horizontal,vertical,none,none,none
1c,23,100166,2,27,91,19,F,NA,variable,homogeneous,6,present,0.771581888198853,1,horizontal,horizontal,1,0.6,green,2,6,1046.31108570371,665.998856501143,619.68777079743,780.31222920257,865.998856501143,846.311085703712,1046.31108570371,665.998856501143,980.31222920257,419.68777079743,734.001143498857,353.688914296288,553.688914296288,534.001143498857,619.68777079743,780.31222920257,0,4,0,0,0,0,vertical,horizontal,vertical,horizontal,horizontal,vertical
1c,23,100166,2,28,92,19,F,NA,variable,homogeneous,4,absent,0.658627033233643,1,vertical,vertical,1,0.776465392112732,red,1,NaN,619.68777079743,780.31222920257,NaN,NaN,619.68777079743,780.31222920257,980.31222920257,780.31222920257,980.31222920257,419.68777079743,619.68777079743,419.68777079743,0,0,0,0,4,0,0,0,NaN,NaN,vertical,vertical,vertical,vertical,none,none
1c,23,100166,2,29,93,19,F,NA,variable,homogeneous,4,absent,0.593623876571655,1,vertical,vertical,1,0.882344627380371,red,4,NaN,548.13947314824,639.890788585259,NaN,NaN,839.890788585259,851.86052685176,1051.86052685176,560.109211414741,760.109211414741,348.13947314824,548.13947314824,639.890788585259,0,0,0,0,0,0,0,4,NaN,NaN,vertical,horizontal,horizontal,vertical,none,none
1c,23,100166,2,30,94,19,F,NA,variable,homogeneous,4,present,0.577290058135986,1,vertical,vertical,1,0.776465392112732,green,4,3,565.271262369628,500.363562235235,899.636437764765,365.271262369628,700.363562235235,834.728737630372,1034.72873763037,699.636437764765,899.636437764765,365.271262369628,565.271262369628,500.363562235235,0,0,0,0,0,0,0,4,NaN,NaN,horizontal,vertical,vertical,vertical,none,none
1c,23,100166,2,31,95,19,F,NA,variable,homogeneous,3,absent,0.558984994888306,1,vertical,vertical,1,0.694114875793457,green,1,NaN,643.006323791957,800.942742169714,NaN,NaN,643.006323791957,800.942742169714,1052.5183575291,635.489140744817,704.475318678942,363.568117085469,0,0,0,0,0,0,4,0,0,NaN,NaN,NaN,vertical,vertical,horizontal,none,none,none
1c,23,100166,2,32,96,19,F,NA,variable,homogeneous,6,absent,1.00596213340759,1,horizontal,horizontal,1,0.98822386264801,green,1,NaN,795.549636358493,854.96116226488,NaN,NaN,795.549636358493,854.96116226488,1018.57766167904,731.334709102064,1023.02802532055,476.373546837184,804.450363641507,345.03883773512,581.422338320961,468.665290897936,576.971974679454,723.626453162816,4,0,0,0,0,0,horizontal,horizontal,horizontal,vertical,horizontal,vertical
1c,23,100166,2,33,97,19,F,NA,variable,homogeneous,5,present,1.00561094284058,1,horizontal,horizontal,1,0.76470103263855,red,1,3,895.524681321058,836.431882914531,861.690083377915,352.574589799621,895.524681321058,836.431882914531,1054.37883281626,582.212099195248,861.690083377915,352.574589799621,583.747735480111,464.870587620533,604.658667004661,763.910840470068,0,0,4,0,0,0,0,NaN,horizontal,vertical,horizontal,horizontal,vertical,none
1c,23,100166,2,34,98,19,F,NA,variable,homogeneous,5,present,0.738831043243408,1,vertical,vertical,1,0.647057437896729,green,4,2,613.504806087112,426.090418184063,1053.09926866854,631.076682568313,848.656293821019,850.314931779154,1053.09926866854,631.076682568313,907.767656743878,368.891514305654,613.504806087112,426.090418184063,576.971974679454,723.626453162816,0,0,0,0,0,4,0,NaN,horizontal,horizontal,vertical,vertical,vertical,none
1c,23,100166,2,35,99,19,F,NA,variable,homogeneous,3,present,0.794934988021851,1,vertical,vertical,1,0.658821797370911,red,2,1,923.626453162816,376.971974679454,931.334709102064,818.577661679039,931.334709102064,818.577661679039,923.626453162816,376.971974679454,545.03883773512,604.450363641507,0,0,0,0,0,0,0,4,0,NaN,NaN,NaN,vertical,vertical,horizontal,none,none,none
1c,23,100166,2,36,100,19,F,NA,variable,homogeneous,6,present,0.567925930023193,1,horizontal,horizontal,1,1.0588100194931,green,2,6,1034.72873763037,699.636437764765,596.34794493794,753.462830903772,831.076682568313,853.099268668537,1034.72873763037,699.636437764765,1003.65205506206,446.537169096228,768.923317431687,346.900731331463,565.271262369628,500.363562235235,596.34794493794,753.462830903772,0,4,0,0,0,0,vertical,horizontal,vertical,vertical,horizontal,horizontal
1c,23,100166,2,37,101,19,F,NA,variable,homogeneous,6,absent,0.603875875473022,1,vertical,vertical,1,0.811758470535278,green,5,NaN,588.595418998464,457.40580961496,NaN,NaN,782.212099195248,854.378832816255,1011.40458100154,742.594190385041,1029.19248180629,488.215357568785,817.787900804752,345.621167183745,588.595418998464,457.40580961496,570.807518193712,711.784642431215,0,0,0,0,4,0,vertical,vertical,vertical,horizontal,vertical,horizontal
1c,23,100166,2,38,102,19,F,NA,variable,homogeneous,6,present,0.57944393157959,1,horizontal,horizontal,1,0.964695143699646,red,3,5,1053.09926866854,568.923317431687,646.537169096228,396.34794493794,700.363562235235,834.728737630372,953.462830903772,803.65205506206,1053.09926866854,568.923317431687,899.636437764765,365.271262369628,646.537169096228,396.34794493794,546.900731331463,631.076682568313,0,0,4,0,0,0,horizontal,horizontal,horizontal,horizontal,vertical,vertical
1c,23,100166,2,39,103,19,F,NA,variable,homogeneous,4,present,0.609585046768188,1,horizontal,horizontal,1,0.917637705802917,green,3,2,632.704947607421,407.549057043193,992.450942956807,432.704947607421,967.295052392579,792.450942956807,992.450942956807,432.704947607421,632.704947607421,407.549057043193,607.549057043193,767.295052392579,0,0,0,0,0,0,4,0,NaN,NaN,horizontal,horizontal,horizontal,horizontal,none,none
1c,23,100166,2,40,104,19,F,NA,variable,homogeneous,4,present,0.616068124771118,1,vertical,vertical,1,1.09410309791565,red,4,2,551.535633479765,657.362518857686,1048.46436652023,542.637481142314,857.362518857686,848.464366520235,1048.46436652023,542.637481142314,742.637481142314,351.535633479765,551.535633479765,657.362518857686,0,0,0,0,0,0,0,4,NaN,NaN,horizontal,vertical,horizontal,vertical,none,none
1c,23,100166,2,41,105,19,F,NA,variable,homogeneous,5,present,0.770618915557861,1,vertical,vertical,1,0.917637705802917,red,1,4,813.345668841951,854.650531362416,639.523300282292,401.827779828472,813.345668841951,854.650531362416,1046.31108570371,665.998856501143,938.882953928832,386.139005173917,639.523300282292,401.827779828472,561.936991243214,691.383827134052,0,0,4,0,0,0,0,NaN,vertical,vertical,horizontal,vertical,horizontal,none
1c,23,100166,2,42,106,19,F,NA,variable,homogeneous,3,present,0.576442003250122,1,vertical,vertical,1,0.729407954216003,green,1,2,844.280285305067,851.125977018113,995.341332995339,436.089159529932,844.280285305067,851.125977018113,995.341332995339,436.089159529932,560.378381699593,512.784863451954,0,0,0,0,0,0,4,0,0,NaN,NaN,NaN,vertical,vertical,horizontal,none,none,none
1c,23,100166,2,43,107,19,F,NA,variable,homogeneous,4,absent,0.809736013412476,1,horizontal,horizontal,1,0.858815908432007,green,2,NaN,1008.88377129369,746.261991269517,NaN,NaN,653.738008730483,808.883771293693,1008.88377129369,746.261991269517,946.261991269517,391.116228706307,591.116228706307,453.738008730483,0,0,0,0,0,4,0,0,NaN,NaN,horizontal,horizontal,horizontal,vertical,none,none
1c,23,100166,2,44,108,19,F,NA,variable,homogeneous,3,absent,0.553856134414673,1,horizontal,horizontal,1,1.01175258159637,green,3,NaN,556.142287229426,674.554784704298,NaN,NaN,986.495193912888,773.909581815937,857.362518857686,351.535633479765,556.142287229426,674.554784704298,0,0,0,0,0,0,0,0,4,NaN,NaN,NaN,horizontal,horizontal,horizontal,none,none,none
1c,23,100166,2,45,109,19,F,NA,variable,homogeneous,6,present,0.839931964874268,1,vertical,vertical,1,0.717643594741821,red,4,1,760.109211414741,348.13947314824,839.890788585259,851.86052685176,839.890788585259,851.86052685176,1038.06300875679,691.383827134052,998.172220171528,439.523300282291,760.109211414741,348.13947314824,561.936991243214,508.616172865948,601.827779828472,760.476699717708,0,0,0,4,0,0,horizontal,horizontal,vertical,vertical,horizontal,horizontal
1c,23,100166,2,46,110,19,F,NA,variable,homogeneous,5,absent,0.819658041000366,1,horizontal,horizontal,1,0.741172313690186,red,3,NaN,960.476699717708,401.827779828472,NaN,NaN,786.654331158049,854.650531362416,1038.06300875679,691.383827134052,960.476699717708,401.827779828472,661.117046071168,386.139005173917,553.688914296288,665.998856501143,0,0,0,0,4,0,0,NaN,horizontal,vertical,horizontal,vertical,horizontal,none
1c,23,100166,2,47,111,19,F,NA,variable,homogeneous,6,present,0.548716068267822,1,horizontal,horizontal,1,0.82352283000946,red,6,4,570.807518193712,711.784642431215,817.787900804752,345.621167183745,782.212099195248,854.378832816255,1011.40458100154,742.594190385041,1029.19248180629,488.215357568785,817.787900804752,345.621167183745,588.595418998464,457.40580961496,570.807518193712,711.784642431215,0,0,0,0,0,4,horizontal,horizontal,horizontal,vertical,horizontal,horizontal
1c,23,100166,2,48,112,19,F,NA,variable,homogeneous,5,absent,0.672852039337158,1,horizontal,horizontal,1,0.858815908432007,green,4,NaN,760.109211414741,348.13947314824,NaN,NaN,684.232422566416,827.206663668034,980.31222920257,780.31222920257,1027.20666366803,484.232422566416,760.109211414741,348.13947314824,548.13947314824,560.109211414741,0,0,0,0,0,4,0,NaN,horizontal,vertical,horizontal,horizontal,horizontal,none
1c,23,100166,2,49,113,19,F,NA,variable,homogeneous,6,absent,0.558741092681885,1,horizontal,horizontal,1,0.999988222122192,red,4,NaN,804.450363641507,345.03883773512,NaN,NaN,795.549636358493,854.96116226488,1018.57766167904,731.334709102064,1023.02802532055,476.373546837184,804.450363641507,345.03883773512,581.422338320961,468.665290897936,576.971974679454,723.626453162816,0,0,0,4,0,0,horizontal,horizontal,vertical,horizontal,horizontal,horizontal
1c,23,100166,2,50,114,19,F,NA,variable,homogeneous,6,present,0.769093036651611,1,vertical,vertical,1,0.952930784225464,red,1,4,760.109211414741,851.86052685176,839.890788585259,348.13947314824,760.109211414741,851.86052685176,998.172220171528,760.476699717708,1038.06300875679,508.616172865948,839.890788585259,348.13947314824,601.827779828472,439.523300282291,561.936991243214,691.383827134052,4,0,0,0,0,0,vertical,horizontal,horizontal,vertical,vertical,vertical
1c,23,100166,2,51,115,19,F,NA,variable,homogeneous,3,absent,0.518800020217896,1,vertical,vertical,1,0.705879235267639,green,1,NaN,764.510859255183,852.518357529101,NaN,NaN,764.510859255183,852.518357529101,1036.43188291453,504.475318678942,599.057257830286,443.006323791957,0,0,0,0,0,0,4,0,0,NaN,NaN,NaN,vertical,vertical,vertical,none,none,none
1c,23,100166,2,52,116,19,F,NA,variable,homogeneous,6,present,0.898953914642334,1,vertical,vertical,1,0.882344627380371,green,5,3,568.891514305654,492.232343256122,1008.88377129369,453.738008730483,822.224714400653,854.029648013395,1031.10848569435,707.767656743878,1008.88377129369,453.738008730483,777.775285599347,345.970351986605,568.891514305654,492.232343256122,591.116228706307,746.261991269517,0,0,0,0,4,0,vertical,vertical,vertical,horizontal,vertical,horizontal
1c,23,100166,2,53,117,19,F,NA,variable,homogeneous,4,present,0.846525907516479,1,horizontal,horizontal,1,1.08233873844147,red,1,4,973.909581815937,786.495193912888,613.504806087112,773.909581815937,973.909581815937,786.495193912888,986.495193912888,426.090418184063,626.090418184063,413.504806087112,613.504806087112,773.909581815937,0,0,0,0,4,0,0,0,NaN,NaN,horizontal,horizontal,vertical,vertical,none,none
1c,23,100166,2,54,118,19,F,NA,variable,homogeneous,4,absent,0.509448051452637,1,horizontal,horizontal,1,0.870580267906189,red,1,NaN,704.475318678942,836.431882914531,NaN,NaN,704.475318678942,836.431882914531,1036.43188291453,695.524681321058,895.524681321058,363.568117085469,563.568117085469,504.475318678942,0,0,0,0,4,0,0,0,NaN,NaN,horizontal,horizontal,vertical,vertical,none,none
1c,23,100166,2,55,119,19,F,NA,variable,homogeneous,3,present,0.591539859771729,1,horizontal,horizontal,1,0.776465392112732,red,3,1,549.685068220846,551.343706178981,883.019879386575,841.107236777826,883.019879386575,841.107236777826,967.295052392579,407.549057043193,549.685068220846,551.343706178981,0,0,0,0,0,0,0,0,4,NaN,NaN,NaN,vertical,horizontal,horizontal,none,none,none
1c,23,100166,2,56,120,19,F,NA,variable,homogeneous,5,absent,0.636169910430908,1,vertical,vertical,1,1.03528130054474,green,1,NaN,826.654758133252,853.60308331891,NaN,NaN,826.654758133252,853.60308331891,1049.42763818712,653.017481158529,927.5,379.163522034968,629.371695378491,410.498069503264,567.045908301137,703.717843984329,0,0,4,0,0,0,0,NaN,vertical,horizontal,horizontal,vertical,vertical,none
1c,23,100166,2,57,121,19,F,NA,variable,homogeneous,3,present,0.535989999771118,1,horizontal,horizontal,1,0.941166424751282,red,3,1,574.848363820974,480.284751489598,808.899371659138,854.844660889869,808.899371659138,854.844660889869,1016.25226451989,464.870587620533,574.848363820974,480.284751489598,0,0,0,0,0,0,0,0,4,NaN,NaN,NaN,vertical,horizontal,horizontal,none,none,none
1c,23,100166,2,58,122,19,F,NA,variable,homogeneous,5,present,0.698342084884644,1,vertical,vertical,1,0.976459503173828,red,2,1,1054.96116226488,595.549636358493,883.019879386575,841.107236777826,883.019879386575,841.107236777826,1054.96116226488,595.549636358493,874.554784704298,356.142287229426,591.116228706307,453.738008730483,596.34794493794,753.462830903772,0,0,0,4,0,0,0,NaN,vertical,vertical,horizontal,horizontal,vertical,none
1c,23,100166,2,59,123,19,F,NA,variable,homogeneous,6,absent,0.566594839096069,1,vertical,vertical,1,0.705879235267639,green,2,NaN,1018.57766167904,731.334709102064,NaN,NaN,795.549636358493,854.96116226488,1018.57766167904,731.334709102064,1023.02802532055,476.373546837184,804.450363641507,345.03883773512,581.422338320961,468.665290897936,576.971974679454,723.626453162816,0,4,0,0,0,0,vertical,vertical,horizontal,horizontal,vertical,horizontal
1c,23,100166,2,60,124,19,F,NA,variable,homogeneous,5,absent,0.604695081710815,0,vertical,horizontal,1,0.729407954216003,green,5,NaN,551.535633479765,657.362518857686,NaN,NaN,777.775285599347,854.029648013395,1034.72873763037,699.636437764765,967.295052392579,407.549057043193,668.665290897936,381.422338320961,551.535633479765,657.362518857686,0,0,0,0,0,0,4,NaN,horizontal,horizontal,horizontal,horizontal,vertical,none
1c,23,100166,2,61,125,19,F,NA,variable,homogeneous,6,absent,0.614671945571899,1,vertical,vertical,1,0.882344627380371,red,4,NaN,760.109211414741,348.13947314824,NaN,NaN,839.890788585259,851.86052685176,1038.06300875679,691.383827134052,998.172220171528,439.523300282291,760.109211414741,348.13947314824,561.936991243214,508.616172865948,601.827779828472,760.476699717708,0,0,0,4,0,0,horizontal,vertical,horizontal,vertical,vertical,vertical
1c,23,100166,2,62,126,19,F,NA,variable,homogeneous,4,absent,0.688622951507568,1,vertical,vertical,1,0.870580267906189,green,2,NaN,1049.42763818712,546.982518841471,NaN,NaN,853.017481158529,849.42763818712,1049.42763818712,546.982518841471,746.982518841471,350.57236181288,550.57236181288,653.017481158529,0,0,0,0,0,4,0,0,NaN,NaN,vertical,vertical,horizontal,horizontal,none,none
1c,23,100166,2,63,127,19,F,NA,variable,homogeneous,4,present,0.499878883361816,0,vertical,horizontal,1,0.870580267906189,red,1,2,773.345241866748,853.60308331891,1053.60308331891,626.654758133252,773.345241866748,853.60308331891,1053.60308331891,626.654758133252,826.654758133252,346.39691668109,546.39691668109,573.345241866748,0,0,0,0,4,0,0,0,NaN,NaN,vertical,horizontal,horizontal,horizontal,none,none
1c,23,100166,2,64,128,19,F,NA,variable,homogeneous,5,present,0.650596141815186,1,horizontal,horizontal,1,0.623528718948364,red,5,4,552.574589799621,538.309916622085,782.212099195248,345.621167183745,664.870587620533,816.252264519889,963.910840470068,795.341332995339,1036.43188291453,504.475318678942,782.212099195248,345.621167183745,552.574589799621,538.309916622085,0,0,0,0,0,0,4,NaN,vertical,vertical,horizontal,horizontal,horizontal,none
1c,23,100166,3,1,129,19,F,NA,variable,homogeneous,3,present,1.67776417732239,1,vertical,vertical,1,0.98822386264801,green,2,3,1052.5183575291,564.510859255183,643.006323791957,399.057257830286,704.475318678942,836.431882914531,1052.5183575291,564.510859255183,643.006323791957,399.057257830286,0,0,0,0,0,0,0,4,0,NaN,NaN,NaN,vertical,vertical,vertical,none,none,none
1c,23,100166,3,2,130,19,F,NA,variable,homogeneous,3,present,0.798429012298584,1,horizontal,horizontal,1,0.941166424751282,red,1,2,619.68777079743,780.31222920257,1046.31108570371,665.998856501143,619.68777079743,780.31222920257,1046.31108570371,665.998856501143,734.001143498857,353.688914296288,0,0,0,0,0,0,4,0,0,NaN,NaN,NaN,horizontal,horizontal,horizontal,none,none,none
1c,23,100166,3,3,131,19,F,NA,variable,homogeneous,5,present,0.588491916656494,1,horizontal,horizontal,1,0.705879235267639,green,3,1,899.636437764765,365.271262369628,857.362518857686,848.464366520235,857.362518857686,848.464366520235,1054.0296480134,622.224714400653,899.636437764765,365.271262369628,607.549057043193,432.704947607421,581.422338320961,731.334709102064,0,0,0,0,4,0,0,NaN,horizontal,horizontal,horizontal,horizontal,horizontal,none
1c,23,100166,3,4,132,19,F,NA,variable,homogeneous,4,present,0.601294994354248,1,vertical,vertical,1,0.635293078422546,green,4,1,550.57236181288,653.017481158529,853.017481158529,849.42763818712,853.017481158529,849.42763818712,1049.42763818712,546.982518841471,746.982518841471,350.57236181288,550.57236181288,653.017481158529,0,0,0,0,0,0,0,4,NaN,NaN,horizontal,vertical,vertical,vertical,none,none
1c,23,100166,3,5,133,19,F,NA,variable,homogeneous,4,present,0.717000961303711,1,horizontal,horizontal,1,0.776465392112732,red,1,2,751.343706178981,850.314931779154,1050.31493177915,648.656293821019,751.343706178981,850.314931779154,1050.31493177915,648.656293821019,848.656293821019,349.685068220846,549.685068220846,551.343706178981,0,0,0,0,4,0,0,0,NaN,NaN,horizontal,vertical,vertical,horizontal,none,none
1c,23,100166,3,6,134,19,F,NA,variable,homogeneous,6,present,0.713821887969971,1,horizontal,horizontal,1,0.905873346328735,green,1,5,700.363562235235,834.728737630372,646.537169096228,396.34794493794,700.363562235235,834.728737630372,953.462830903772,803.65205506206,1053.09926866854,568.923317431687,899.636437764765,365.271262369628,646.537169096228,396.34794493794,546.900731331463,631.076682568313,4,0,0,0,0,0,horizontal,horizontal,vertical,horizontal,horizontal,vertical
1c,23,100166,3,7,135,19,F,NA,variable,homogeneous,6,absent,0.857825040817261,1,horizontal,horizontal,1,0.882344627380371,red,2,NaN,1054.65053136242,613.345668841951,NaN,NaN,915.767577433584,827.206663668034,1054.65053136242,613.345668841951,938.882953928832,386.139005173917,684.232422566416,372.793336331966,545.349468637584,586.654331158049,661.117046071168,813.860994826083,0,4,0,0,0,0,vertical,horizontal,horizontal,vertical,vertical,horizontal
1c,23,100166,3,8,136,19,F,NA,variable,homogeneous,4,absent,0.552157163619995,1,horizontal,horizontal,1,0.635293078422546,green,4,NaN,610.498069503264,429.371695378491,NaN,NaN,629.371695378491,789.501930496736,989.501930496736,770.628304621509,970.628304621509,410.498069503264,610.498069503264,429.371695378491,0,0,0,0,0,0,0,4,NaN,NaN,vertical,horizontal,vertical,horizontal,none,none
1c,23,100166,3,9,137,19,F,NA,variable,homogeneous,4,absent,0.663187026977539,1,vertical,vertical,1,0.98822386264801,red,3,NaN,653.738008730483,391.116228706307,NaN,NaN,946.261991269517,808.883771293693,1008.88377129369,453.738008730483,653.738008730483,391.116228706307,591.116228706307,746.261991269517,0,0,0,0,0,0,4,0,NaN,NaN,vertical,horizontal,vertical,vertical,none,none
1c,23,100166,3,10,138,19,F,NA,variable,homogeneous,6,absent,0.493796110153198,1,horizontal,horizontal,1,0.858815908432007,red,6,NaN,545.349468637584,613.345668841951,NaN,NaN,684.232422566416,827.206663668034,938.882953928832,813.860994826083,1054.65053136242,586.654331158049,915.767577433584,372.793336331966,661.117046071168,386.139005173917,545.349468637584,613.345668841951,0,0,0,0,0,4,vertical,horizontal,horizontal,horizontal,vertical,horizontal
1c,23,100166,3,11,139,19,F,NA,variable,homogeneous,5,absent,0.616036176681519,1,horizontal,horizontal,1,0.811758470535278,red,1,NaN,692.232343256122,831.108485694346,NaN,NaN,692.232343256122,831.108485694346,986.495193912888,773.909581815937,1023.02802532055,476.373546837184,751.343706178981,349.685068220846,546.900731331463,568.923317431687,0,0,4,0,0,0,0,NaN,horizontal,vertical,horizontal,horizontal,vertical,none
1c,23,100166,3,12,140,19,F,NA,variable,homogeneous,3,present,0.68855619430542,1,horizontal,horizontal,1,0.999988222122192,green,3,2,570.807518193712,711.784642431215,817.787900804752,345.621167183745,1011.40458100154,742.594190385041,817.787900804752,345.621167183745,570.807518193712,711.784642431215,0,0,0,0,0,0,0,0,4,NaN,NaN,NaN,horizontal,vertical,horizontal,none,none,none
1c,23,100166,3,13,141,19,F,NA,variable,homogeneous,4,present,0.477849006652832,1,horizontal,horizontal,1,0.76470103263855,green,4,3,549.685068220846,648.656293821019,751.343706178981,349.685068220846,848.656293821019,850.314931779154,1050.31493177915,551.343706178981,751.343706178981,349.685068220846,549.685068220846,648.656293821019,0,0,0,0,0,0,0,4,NaN,NaN,horizontal,vertical,horizontal,horizontal,none,none
1c,23,100166,3,14,142,19,F,NA,variable,homogeneous,4,present,0.446378946304321,1,vertical,vertical,1,0.941166424751282,red,2,3,1008.88377129369,453.738008730483,653.738008730483,391.116228706307,946.261991269517,808.883771293693,1008.88377129369,453.738008730483,653.738008730483,391.116228706307,591.116228706307,746.261991269517,0,0,0,0,0,4,0,0,NaN,NaN,vertical,vertical,horizontal,vertical,none,none
1c,23,100166,3,15,143,19,F,NA,variable,homogeneous,4,absent,0.52267599105835,1,vertical,vertical,1,0.952930784225464,red,1,NaN,903.717843984329,832.954091698863,NaN,NaN,903.717843984329,832.954091698863,1032.95409169886,496.282156015671,696.282156015671,367.045908301137,567.045908301137,703.717843984329,0,0,0,0,4,0,0,0,NaN,NaN,vertical,vertical,vertical,vertical,none,none
1c,23,100166,3,16,144,19,F,NA,variable,homogeneous,6,absent,0.663404941558838,1,horizontal,horizontal,1,0.705879235267639,green,6,NaN,672.5,820.836477965032,NaN,NaN,927.5,820.836477965032,1055,600,927.5,379.163522034968,672.5,379.163522034968,545,600,672.5,820.836477965032,0,0,0,0,0,4,vertical,horizontal,horizontal,horizontal,horizontal,horizontal
1c,23,100166,3,17,145,19,F,NA,variable,homogeneous,3,absent,0.486011981964111,1,vertical,vertical,1,1.0588100194931,red,3,NaN,579.163522034968,727.5,NaN,NaN,1020.83647796503,727.5,800,345,579.163522034968,727.5,0,0,0,0,0,0,0,0,4,NaN,NaN,NaN,vertical,horizontal,vertical,none,none,none
1c,23,100166,3,18,146,19,F,NA,variable,homogeneous,5,present,0.678544998168945,1,vertical,vertical,1,0.9294020652771,green,3,5,848.656293821019,349.685068220846,613.504806087112,773.909581815937,907.767656743878,831.108485694346,1053.09926866854,568.923317431687,848.656293821019,349.685068220846,576.971974679454,476.373546837184,613.504806087112,773.909581815937,0,0,0,0,4,0,0,NaN,horizontal,vertical,vertical,horizontal,horizontal,none
1c,23,100166,3,19,147,19,F,NA,variable,homogeneous,3,absent,0.534111022949219,1,vertical,vertical,1,1.09410309791565,green,3,NaN,653.738008730483,391.116228706307,NaN,NaN,692.232343256122,831.108485694346,1054.0296480134,577.775285599347,653.738008730483,391.116228706307,0,0,0,0,0,0,0,0,4,NaN,NaN,NaN,vertical,vertical,vertical,none,none,none
1c,23,100166,3,20,148,19,F,NA,variable,homogeneous,3,absent,0.444766044616699,0,horizontal,vertical,1,0.98822386264801,red,1,NaN,734.001143498857,846.311085703712,NaN,NaN,734.001143498857,846.311085703712,1046.31108570371,534.001143498857,619.68777079743,419.68777079743,0,0,0,0,0,0,4,0,0,NaN,NaN,NaN,horizontal,horizontal,horizontal,none,none,none
1c,23,100166,3,21,149,19,F,NA,variable,homogeneous,5,present,0.728065967559814,1,horizontal,horizontal,1,0.917637705802917,green,3,5,967.295052392579,407.549057043193,551.535633479765,657.362518857686,777.775285599347,854.029648013395,1034.72873763037,699.636437764765,967.295052392579,407.549057043193,668.665290897936,381.422338320961,551.535633479765,657.362518857686,0,0,0,0,4,0,0,NaN,horizontal,vertical,horizontal,vertical,horizontal,none
1c,23,100166,3,22,150,19,F,NA,variable,homogeneous,5,absent,0.50786018371582,1,horizontal,horizontal,1,0.647057437896729,green,5,NaN,591.116228706307,746.261991269517,NaN,NaN,874.554784704298,843.857712770574,1054.96116226488,604.450363641507,883.019879386575,358.892763222174,596.34794493794,446.537169096228,591.116228706307,746.261991269517,0,0,0,0,0,0,4,NaN,vertical,horizontal,vertical,horizontal,horizontal,none
1c,23,100166,3,23,151,19,F,NA,variable,homogeneous,3,absent,0.670749187469482,1,vertical,vertical,1,0.82352283000946,red,2,NaN,804.450363641507,345.03883773512,NaN,NaN,1018.57766167904,731.334709102064,804.450363641507,345.03883773512,576.971974679454,723.626453162816,0,0,0,0,0,0,0,4,0,NaN,NaN,NaN,horizontal,vertical,horizontal,none,none,none
1c,23,100166,3,24,152,19,F,NA,variable,homogeneous,3,present,0.590274095535278,1,vertical,vertical,1,1.09410309791565,red,3,1,646.537169096228,396.34794493794,700.363562235235,834.728737630372,700.363562235235,834.728737630372,1053.09926866854,568.923317431687,646.537169096228,396.34794493794,0,0,0,0,0,0,0,0,4,NaN,NaN,NaN,vertical,horizontal,vertical,none,none,none
1c,23,100166,3,25,153,19,F,NA,variable,homogeneous,6,present,0.611449003219604,1,vertical,vertical,1,0.658821797370911,red,1,6,817.787900804752,854.378832816255,588.595418998464,742.594190385041,817.787900804752,854.378832816255,1029.19248180629,711.784642431215,1011.40458100154,457.40580961496,782.212099195248,345.621167183745,570.807518193712,488.215357568785,588.595418998464,742.594190385041,4,0,0,0,0,0,vertical,horizontal,vertical,horizontal,vertical,horizontal
1c,23,100166,3,26,154,19,F,NA,variable,homogeneous,6,present,0.911285877227783,1,vertical,vertical,1,0.964695143699646,green,2,4,1016.25226451989,735.129412379467,808.899371659138,345.155339110131,791.100628340862,854.844660889869,1016.25226451989,735.129412379467,1025.15163617903,480.284751489598,808.899371659138,345.155339110131,583.747735480111,464.870587620533,574.848363820974,719.715248510402,0,4,0,0,0,0,vertical,vertical,horizontal,horizontal,vertical,vertical
1c,23,100166,3,27,155,19,F,NA,variable,homogeneous,4,absent,0.548985004425049,1,vertical,vertical,1,0.964695143699646,green,2,NaN,989.501930496736,429.371695378491,NaN,NaN,970.628304621509,789.501930496736,989.501930496736,429.371695378491,629.371695378491,410.498069503264,610.498069503264,770.628304621509,0,0,0,0,0,4,0,0,NaN,NaN,horizontal,vertical,vertical,vertical,none,none
1c,23,100166,3,28,156,19,F,NA,variable,homogeneous,4,present,0.693956136703491,1,horizontal,horizontal,1,0.694114875793457,green,3,2,760.109211414741,348.13947314824,1051.86052685176,560.109211414741,839.890788585259,851.86052685176,1051.86052685176,560.109211414741,760.109211414741,348.13947314824,548.13947314824,639.890788585259,0,0,0,0,0,0,4,0,NaN,NaN,horizontal,vertical,horizontal,vertical,none,none
1c,23,100166,3,29,157,19,F,NA,variable,homogeneous,6,present,0.589050054550171,1,horizontal,horizontal,1,0.647057437896729,green,4,6,927.5,379.163522034968,545,600,672.5,820.836477965032,927.5,820.836477965032,1055,600,927.5,379.163522034968,672.5,379.163522034968,545,600,0,0,0,4,0,0,vertical,horizontal,horizontal,horizontal,horizontal,horizontal
1c,23,100166,3,30,158,19,F,NA,variable,homogeneous,6,absent,0.588111162185669,1,vertical,vertical,1,0.952930784225464,red,3,NaN,986.495193912888,426.090418184063,NaN,NaN,857.362518857686,848.464366520235,1043.85771277057,674.554784704298,986.495193912888,426.090418184063,742.637481142314,351.535633479765,556.142287229426,525.445215295702,613.504806087112,773.909581815937,0,0,4,0,0,0,horizontal,horizontal,vertical,vertical,horizontal,vertical
1c,23,100166,3,31,159,19,F,NA,variable,homogeneous,4,absent,0.580184936523438,1,vertical,vertical,1,0.799994111061096,green,2,NaN,995.341332995339,763.910840470068,NaN,NaN,636.089159529932,795.341332995339,995.341332995339,763.910840470068,963.910840470068,404.658667004661,604.658667004661,436.089159529932,0,0,0,0,0,4,0,0,NaN,NaN,vertical,vertical,horizontal,horizontal,none,none
1c,23,100166,3,32,160,19,F,NA,variable,homogeneous,5,absent,0.509126901626587,1,vertical,vertical,1,0.858815908432007,red,1,NaN,672.5,820.836477965032,NaN,NaN,672.5,820.836477965032,970.628304621509,789.501930496736,1032.95409169886,496.282156015671,773.345241866748,346.39691668109,550.57236181288,546.982518841471,0,0,4,0,0,0,0,NaN,vertical,horizontal,vertical,vertical,horizontal,none
1c,23,100166,3,33,161,19,F,NA,variable,homogeneous,5,absent,0.477160930633545,1,vertical,vertical,1,1.08233873844147,green,4,NaN,777.775285599347,345.970351986605,NaN,NaN,668.665290897936,818.577661679039,967.295052392579,792.450942956807,1034.72873763037,500.363562235235,777.775285599347,345.970351986605,551.535633479765,542.637481142314,0,0,0,0,0,4,0,NaN,vertical,horizontal,horizontal,vertical,vertical,none
1c,23,100166,3,34,162,19,F,NA,variable,homogeneous,3,present,0.442770004272461,1,horizontal,horizontal,1,0.799994111061096,red,1,3,800,855,579.163522034968,472.5,800,855,1020.83647796503,472.5,579.163522034968,472.5,0,0,0,0,0,0,4,0,0,NaN,NaN,NaN,horizontal,vertical,horizontal,none,none,none
1c,23,100166,3,35,163,19,F,NA,variable,homogeneous,5,present,0.681020975112915,1,horizontal,horizontal,1,0.658821797370911,red,2,1,1053.09926866854,568.923317431687,907.767656743878,831.108485694346,907.767656743878,831.108485694346,1053.09926866854,568.923317431687,848.656293821019,349.685068220846,576.971974679454,476.373546837184,613.504806087112,773.909581815937,0,0,0,4,0,0,0,NaN,horizontal,horizontal,vertical,horizontal,vertical,none
1c,23,100166,3,36,164,19,F,NA,variable,homogeneous,3,absent,0.522448062896729,1,horizontal,horizontal,1,0.776465392112732,green,3,NaN,639.523300282292,401.827779828472,NaN,NaN,708.616172865948,838.063008756786,1051.86052685176,560.109211414741,639.523300282292,401.827779828472,0,0,0,0,0,0,0,0,4,NaN,NaN,NaN,horizontal,horizontal,horizontal,none,none,none
1c,23,100166,3,37,165,19,F,NA,variable,homogeneous,5,present,0.561032056808472,1,vertical,vertical,1,0.6,green,3,2,1038.06300875679,508.616172865948,960.476699717708,798.172220171528,661.117046071168,813.860994826083,960.476699717708,798.172220171528,1038.06300875679,508.616172865948,786.654331158049,345.349468637584,553.688914296288,534.001143498857,0,0,0,0,4,0,0,NaN,horizontal,horizontal,vertical,horizontal,vertical,none
1c,23,100166,3,38,166,19,F,NA,variable,homogeneous,3,present,0.627836942672729,1,horizontal,horizontal,1,0.776465392112732,green,3,1,545.621167183745,582.212099195248,911.784642431215,829.192481806288,911.784642431215,829.192481806288,942.594190385041,388.595418998464,545.621167183745,582.212099195248,0,0,0,0,0,0,0,0,4,NaN,NaN,NaN,horizontal,vertical,horizontal,none,none,none
1c,23,100166,3,39,167,19,F,NA,variable,homogeneous,3,absent,0.429841041564941,1,horizontal,horizontal,1,0.858815908432007,red,1,NaN,848.656293821019,850.314931779154,NaN,NaN,848.656293821019,850.314931779154,992.450942956807,432.704947607421,558.892763222174,516.980120613425,0,0,0,0,0,0,4,0,0,NaN,NaN,NaN,horizontal,horizontal,horizontal,none,none,none
1c,23,100166,3,40,168,19,F,NA,variable,homogeneous,5,present,0.838826179504395,1,vertical,vertical,1,0.611764359474182,red,2,1,1047.42541020038,661.690083377915,817.787900804752,854.378832816255,817.787900804752,854.378832816255,1047.42541020038,661.690083377915,935.129412379467,383.747735480111,636.089159529932,404.658667004661,563.568117085469,695.524681321058,0,0,0,4,0,0,0,NaN,horizontal,vertical,vertical,horizontal,vertical,none
1c,23,100166,3,41,169,19,F,NA,variable,homogeneous,6,present,0.613357067108154,1,horizontal,horizontal,1,0.882344627380371,red,1,4,751.343706178981,850.314931779154,848.656293821019,349.685068220846,751.343706178981,850.314931779154,992.450942956807,767.295052392579,1041.10723677783,516.980120613425,848.656293821019,349.685068220846,607.549057043193,432.704947607421,558.892763222174,683.019879386575,4,0,0,0,0,0,horizontal,horizontal,vertical,vertical,vertical,horizontal
1c,23,100166,3,42,170,19,F,NA,variable,homogeneous,6,present,0.654926061630249,1,vertical,vertical,1,0.647057437896729,red,5,3,619.68777079743,419.68777079743,1046.31108570371,534.001143498857,734.001143498857,846.311085703712,980.31222920257,780.31222920257,1046.31108570371,534.001143498857,865.998856501143,353.688914296288,619.68777079743,419.68777079743,553.688914296288,665.998856501143,0,0,0,0,4,0,horizontal,vertical,vertical,vertical,vertical,horizontal
1c,23,100166,3,43,171,19,F,NA,variable,homogeneous,5,absent,0.566006898880005,1,horizontal,horizontal,1,0.694114875793457,red,1,NaN,773.345241866748,853.60308331891,NaN,NaN,773.345241866748,853.60308331891,1032.95409169886,703.717843984329,970.628304621509,410.498069503264,672.5,379.163522034968,550.57236181288,653.017481158529,0,0,4,0,0,0,0,NaN,horizontal,vertical,vertical,vertical,vertical,none
1c,23,100166,3,44,172,19,F,NA,variable,homogeneous,5,present,0.590447902679443,1,horizontal,horizontal,1,0.647057437896729,red,4,5,561.936991243214,508.616172865948,639.523300282292,798.172220171528,938.882953928832,813.860994826083,1046.31108570371,534.001143498857,813.345668841951,345.349468637584,561.936991243214,508.616172865948,639.523300282292,798.172220171528,0,0,0,0,0,4,0,NaN,horizontal,horizontal,horizontal,horizontal,vertical,none
1c,23,100166,3,45,173,19,F,NA,variable,homogeneous,4,absent,0.443324089050293,1,horizontal,horizontal,1,1.03528130054474,red,4,NaN,604.658667004661,436.089159529932,NaN,NaN,636.089159529932,795.341332995339,995.341332995339,763.910840470068,963.910840470068,404.658667004661,604.658667004661,436.089159529932,0,0,0,0,0,0,0,4,NaN,NaN,horizontal,vertical,vertical,horizontal,none,none
1c,23,100166,3,46,174,19,F,NA,variable,homogeneous,4,absent,0.469594955444336,1,horizontal,horizontal,1,0.870580267906189,green,4,NaN,616.568350913644,422.862115532956,NaN,NaN,622.862115532956,783.431649086356,983.431649086356,777.137884467044,977.137884467044,416.568350913644,616.568350913644,422.862115532956,0,0,0,0,0,0,0,4,NaN,NaN,horizontal,vertical,vertical,horizontal,none,none
1c,23,100166,3,47,175,19,F,NA,variable,homogeneous,6,absent,0.491990089416504,0,vertical,horizontal,1,0.82352283000946,green,4,NaN,704.475318678942,363.568117085469,NaN,NaN,895.524681321058,836.431882914531,1052.5183575291,635.489140744817,956.993676208043,399.057257830286,704.475318678942,363.568117085469,547.481642470899,564.510859255183,643.006323791957,800.942742169714,0,0,0,4,0,0,horizontal,horizontal,horizontal,vertical,horizontal,horizontal
1c,23,100166,3,48,176,19,F,NA,variable,homogeneous,3,absent,0.56169319152832,1,horizontal,horizontal,1,0.98822386264801,green,2,NaN,826.654758133252,346.39691668109,NaN,NaN,1006.29933356561,749.885239334581,826.654758133252,346.39691668109,567.045908301137,703.717843984329,0,0,0,0,0,0,0,4,0,NaN,NaN,NaN,vertical,horizontal,vertical,none,none,none
1c,23,100166,3,49,177,19,F,NA,variable,homogeneous,5,absent,0.48524284362793,1,vertical,vertical,1,0.82352283000946,red,1,NaN,782.212099195248,854.378832816255,NaN,NaN,782.212099195248,854.378832816255,1036.43188291453,695.524681321058,963.910840470068,404.658667004661,664.870587620533,383.747735480111,552.574589799621,661.690083377915,0,0,4,0,0,0,0,NaN,vertical,vertical,horizontal,horizontal,horizontal,none
1c,23,100166,3,50,178,19,F,NA,variable,homogeneous,3,present,0.496684074401855,1,vertical,vertical,1,0.870580267906189,green,3,2,558.892763222174,516.980120613425,992.450942956807,432.704947607421,848.656293821019,850.314931779154,992.450942956807,432.704947607421,558.892763222174,516.980120613425,0,0,0,0,0,0,0,0,4,NaN,NaN,NaN,horizontal,horizontal,vertical,none,none,none
1c,23,100166,3,51,179,19,F,NA,variable,homogeneous,4,present,0.670742988586426,1,horizontal,horizontal,1,0.999988222122192,red,2,1,1025.15163617903,719.715248510402,680.284751489598,825.151636179026,680.284751489598,825.151636179026,1025.15163617903,719.715248510402,919.715248510402,374.848363820974,574.848363820974,480.284751489598,0,0,0,0,0,4,0,0,NaN,NaN,vertical,horizontal,vertical,horizontal,none,none
1c,23,100166,3,52,180,19,F,NA,variable,homogeneous,5,present,0.532775163650513,1,vertical,vertical,1,1.02351694107056,red,2,1,1051.12597701811,644.280285305067,835.489140744817,852.518357529101,835.489140744817,852.518357529101,1051.12597701811,644.280285305067,919.715248510402,374.848363820974,622.862115532956,416.568350913644,570.807518193712,711.784642431215,0,0,0,4,0,0,0,NaN,horizontal,vertical,vertical,vertical,horizontal,none
1c,23,100166,3,53,181,19,F,NA,variable,homogeneous,3,absent,0.505143880844116,1,vertical,vertical,1,1.07057437896729,green,2,NaN,1000.94274216971,443.006323791957,NaN,NaN,835.489140744817,852.518357529101,1000.94274216971,443.006323791957,563.568117085469,504.475318678942,0,0,0,0,0,0,0,4,0,NaN,NaN,NaN,vertical,vertical,vertical,none,none,none
1c,23,100166,3,54,182,19,F,NA,variable,homogeneous,5,absent,0.547584056854248,1,vertical,vertical,1,0.799994111061096,green,3,NaN,931.334709102064,381.422338320961,NaN,NaN,822.224714400653,854.029648013395,1048.46436652023,657.362518857686,931.334709102064,381.422338320961,632.704947607421,407.549057043193,565.271262369628,699.636437764765,0,0,0,0,4,0,0,NaN,horizontal,horizontal,vertical,vertical,horizontal,none
1c,23,100166,3,55,183,19,F,NA,variable,homogeneous,6,absent,0.606269836425781,1,horizontal,horizontal,1,0.98822386264801,green,2,NaN,1013.86099482608,738.882953928832,NaN,NaN,786.654331158049,854.650531362416,1013.86099482608,738.882953928832,1027.20666366803,484.232422566416,813.345668841951,345.349468637584,586.139005173917,461.117046071168,572.793336331966,715.767577433584,0,4,0,0,0,0,vertical,horizontal,vertical,horizontal,vertical,vertical
1c,23,100166,3,56,184,19,F,NA,variable,homogeneous,4,present,0.566354990005493,1,vertical,vertical,1,0.788229751586914,green,1,3,704.475318678942,836.431882914531,895.524681321058,363.568117085469,704.475318678942,836.431882914531,1036.43188291453,695.524681321058,895.524681321058,363.568117085469,563.568117085469,504.475318678942,0,0,0,0,4,0,0,0,NaN,NaN,vertical,vertical,vertical,vertical,none,none
1c,23,100166,3,57,185,19,F,NA,variable,homogeneous,4,present,0.667105913162231,1,vertical,vertical,1,0.858815908432007,red,2,3,1011.40458100154,457.40580961496,657.405809614959,388.595418998464,942.594190385041,811.404581001536,1011.40458100154,457.40580961496,657.405809614959,388.595418998464,588.595418998464,742.594190385041,0,0,0,0,0,4,0,0,NaN,NaN,horizontal,vertical,horizontal,horizontal,none,none
1c,23,100166,3,58,186,19,F,NA,variable,homogeneous,3,present,0.521514177322388,1,vertical,vertical,1,0.835287189483643,red,2,1,1045.12173246427,529.712474266665,738.309916622085,847.425410200379,738.309916622085,847.425410200379,1045.12173246427,529.712474266665,616.568350913644,422.862115532956,0,0,0,0,0,0,0,4,0,NaN,NaN,NaN,horizontal,vertical,horizontal,none,none,none
1c,23,100166,3,59,187,19,F,NA,variable,homogeneous,5,absent,0.473602056503296,1,horizontal,horizontal,1,0.894108986854553,green,2,NaN,1048.46436652023,657.362518857686,NaN,NaN,822.224714400653,854.029648013395,1048.46436652023,657.362518857686,931.334709102064,381.422338320961,632.704947607421,407.549057043193,565.271262369628,699.636437764765,0,0,0,4,0,0,0,NaN,horizontal,horizontal,vertical,horizontal,horizontal,none
1c,23,100166,3,60,188,19,F,NA,variable,homogeneous,6,absent,0.600001096725464,1,vertical,vertical,1,0.623528718948364,red,6,NaN,553.688914296288,665.998856501143,NaN,NaN,734.001143498857,846.311085703712,980.31222920257,780.31222920257,1046.31108570371,534.001143498857,865.998856501143,353.688914296288,619.68777079743,419.68777079743,553.688914296288,665.998856501143,0,0,0,0,0,4,horizontal,vertical,vertical,horizontal,horizontal,vertical
1c,23,100166,3,61,189,19,F,NA,variable,homogeneous,6,present,0.718214988708496,1,vertical,vertical,1,1.09410309791565,green,5,2,545,600,1055,600,927.5,820.836477965032,1055,600,927.5,379.163522034968,672.5,379.163522034968,545,600,672.5,820.836477965032,0,0,0,0,4,0,vertical,vertical,horizontal,vertical,vertical,horizontal
1c,23,100166,3,62,190,19,F,NA,variable,homogeneous,6,absent,0.633576154708862,1,vertical,vertical,1,1.03528130054474,green,3,NaN,953.462830903772,396.34794493794,NaN,NaN,899.636437764765,834.728737630372,1053.09926866854,631.076682568313,953.462830903772,396.34794493794,700.363562235235,365.271262369628,546.900731331463,568.923317431687,646.537169096228,803.65205506206,0,0,4,0,0,0,horizontal,horizontal,vertical,vertical,horizontal,vertical
1c,23,100166,3,63,191,19,F,NA,variable,homogeneous,4,absent,0.518228054046631,1,horizontal,horizontal,1,0.999988222122192,red,4,NaN,557.480588344736,678.799333565612,NaN,NaN,878.799333565612,842.519411655264,1042.51941165526,521.200666434388,721.200666434388,357.480588344736,557.480588344736,678.799333565612,0,0,0,0,0,0,0,4,NaN,NaN,vertical,horizontal,horizontal,horizontal,none,none
1c,23,100166,3,64,192,19,F,NA,variable,homogeneous,6,present,0.58031702041626,0,horizontal,vertical,1,0.976459503173828,red,5,3,556.142287229426,525.445215295702,986.495193912888,426.090418184063,857.362518857686,848.464366520235,1043.85771277057,674.554784704298,986.495193912888,426.090418184063,742.637481142314,351.535633479765,556.142287229426,525.445215295702,613.504806087112,773.909581815937,0,0,0,0,4,0,horizontal,horizontal,vertical,horizontal,horizontal,vertical
1c,23,100166,4,1,193,19,F,NA,variable,homogeneous,5,absent,0.0407140254974365,0,vertical,horizontal,1,0.964695143699646,green,2,NaN,1052.5183575291,635.489140744817,NaN,NaN,844.280285305067,851.125977018113,1052.5183575291,635.489140744817,911.784642431215,370.807518193712,616.568350913644,422.862115532956,574.848363820974,719.715248510402,0,0,0,4,0,0,0,NaN,horizontal,vertical,vertical,horizontal,horizontal,none
1c,23,100166,4,2,194,19,F,NA,variable,homogeneous,5,absent,0.765290975570679,1,vertical,vertical,1,0.98822386264801,red,4,NaN,616.568350913644,422.862115532956,NaN,NaN,844.280285305067,851.125977018113,1052.5183575291,635.489140744817,911.784642431215,370.807518193712,616.568350913644,422.862115532956,574.848363820974,719.715248510402,0,0,0,0,0,4,0,NaN,vertical,vertical,horizontal,vertical,horizontal,none
1c,23,100166,4,3,195,19,F,NA,variable,homogeneous,6,present,1.03735709190369,1,horizontal,horizontal,1,0.82352283000946,red,1,3,874.554784704298,843.857712770574,973.909581815937,413.504806087112,874.554784704298,843.857712770574,1048.46436652023,657.362518857686,973.909581815937,413.504806087112,725.445215295702,356.142287229426,551.535633479765,542.637481142314,626.090418184063,786.495193912888,4,0,0,0,0,0,horizontal,horizontal,vertical,horizontal,horizontal,vertical
1c,23,100166,4,4,196,19,F,NA,variable,homogeneous,6,absent,0.753828048706055,1,vertical,vertical,1,0.964695143699646,red,3,NaN,1054.0296480134,577.775285599347,NaN,NaN,692.232343256122,831.108485694346,946.261991269517,808.883771293693,1054.0296480134,577.775285599347,907.767656743878,368.891514305654,653.738008730483,391.116228706307,545.970351986605,622.224714400653,0,0,4,0,0,0,vertical,vertical,vertical,horizontal,vertical,vertical
1c,23,100166,4,5,197,19,F,NA,variable,homogeneous,4,present,0.91936206817627,1,horizontal,horizontal,1,0.717643594741821,green,2,4,1011.40458100154,742.594190385041,588.595418998464,457.40580961496,657.405809614959,811.404581001536,1011.40458100154,742.594190385041,942.594190385041,388.595418998464,588.595418998464,457.40580961496,0,0,0,0,0,4,0,0,NaN,NaN,vertical,horizontal,horizontal,vertical,none,none
1c,23,100166,4,6,198,19,F,NA,variable,homogeneous,4,present,0.864137887954712,1,horizontal,horizontal,1,0.917637705802917,red,3,4,751.343706178981,349.685068220846,549.685068220846,648.656293821019,848.656293821019,850.314931779154,1050.31493177915,551.343706178981,751.343706178981,349.685068220846,549.685068220846,648.656293821019,0,0,0,0,0,0,4,0,NaN,NaN,vertical,vertical,horizontal,vertical,none,none
1c,23,100166,4,7,199,19,F,NA,variable,homogeneous,5,absent,0.584208011627197,1,horizontal,horizontal,1,0.9294020652771,red,1,NaN,942.594190385041,811.404581001536,NaN,NaN,942.594190385041,811.404581001536,1045.12173246427,529.712474266665,808.899371659138,345.155339110131,560.378381699593,512.784863451954,643.006323791957,800.942742169714,0,0,4,0,0,0,0,NaN,horizontal,vertical,horizontal,vertical,vertical,none
1c,23,100166,4,8,200,19,F,NA,variable,homogeneous,3,absent,0.670367002487183,1,horizontal,horizontal,1,0.717643594741821,red,1,NaN,700.363562235235,834.728737630372,NaN,NaN,700.363562235235,834.728737630372,1053.09926866854,568.923317431687,646.537169096228,396.34794493794,0,0,0,0,0,0,4,0,0,NaN,NaN,NaN,horizontal,horizontal,vertical,none,none,none
1c,23,100166,4,9,201,19,F,NA,variable,homogeneous,3,absent,0.564136028289795,1,horizontal,horizontal,1,0.799994111061096,green,1,NaN,956.993676208043,800.942742169714,NaN,NaN,956.993676208043,800.942742169714,895.524681321058,363.568117085469,547.481642470899,635.489140744817,0,0,0,0,0,0,4,0,0,NaN,NaN,NaN,horizontal,vertical,horizontal,none,none,none
1c,23,100166,4,10,202,19,F,NA,variable,homogeneous,6,absent,0.564666032791138,1,horizontal,horizontal,1,0.847051548957825,red,1,NaN,716.980120613425,841.107236777826,NaN,NaN,716.980120613425,841.107236777826,967.295052392579,792.450942956807,1050.31493177915,551.343706178981,883.019879386575,358.892763222174,632.704947607421,407.549057043193,549.685068220846,648.656293821019,4,0,0,0,0,0,horizontal,horizontal,vertical,vertical,vertical,horizontal
1c,23,100166,4,11,203,19,F,NA,variable,homogeneous,5,present,0.580728054046631,0,horizontal,vertical,1,1.02351694107056,green,3,2,1003.65205506206,446.537169096228,1008.88377129369,746.261991269517,725.445215295702,843.857712770574,1008.88377129369,746.261991269517,1003.65205506206,446.537169096228,716.980120613425,358.892763222174,545.03883773512,604.450363641507,0,0,0,0,4,0,0,NaN,horizontal,vertical,horizontal,vertical,horizontal,none
1c,23,100166,4,12,204,19,F,NA,variable,homogeneous,3,present,1.03629803657532,1,horizontal,horizontal,1,0.98822386264801,green,1,3,632.704947607421,792.450942956807,716.980120613425,358.892763222174,632.704947607421,792.450942956807,1050.31493177915,648.656293821019,716.980120613425,358.892763222174,0,0,0,0,0,0,4,0,0,NaN,NaN,NaN,horizontal,vertical,vertical,none,none,none
1c,23,100166,4,13,205,19,F,NA,variable,homogeneous,4,present,1.25784087181091,1,vertical,vertical,1,0.635293078422546,green,4,1,579.163522034968,727.5,927.5,820.836477965032,927.5,820.836477965032,1020.83647796503,472.5,672.5,379.163522034968,579.163522034968,727.5,0,0,0,0,0,0,0,4,NaN,NaN,horizontal,horizontal,horizontal,vertical,none,none
1c,23,100166,4,14,206,19,F,NA,variable,homogeneous,6,absent,0.643871068954468,1,vertical,vertical,1,1.02351694107056,green,6,NaN,545,600,NaN,NaN,672.5,820.836477965032,927.5,820.836477965032,1055,600,927.5,379.163522034968,672.5,379.163522034968,545,600,0,0,0,0,0,4,vertical,horizontal,horizontal,horizontal,vertical,vertical
1c,23,100166,4,15,207,19,F,NA,variable,homogeneous,4,present,0.612571001052856,1,horizontal,horizontal,1,0.776465392112732,red,4,3,552.574589799621,538.309916622085,861.690083377915,352.574589799621,738.309916622085,847.425410200379,1047.42541020038,661.690083377915,861.690083377915,352.574589799621,552.574589799621,538.309916622085,0,0,0,0,0,0,0,4,NaN,NaN,horizontal,vertical,vertical,horizontal,none,none
1c,23,100166,4,16,208,19,F,NA,variable,homogeneous,3,present,0.658082962036133,1,vertical,vertical,1,0.658821797370911,green,1,2,596.34794493794,753.462830903772,1034.72873763037,699.636437764765,596.34794493794,753.462830903772,1034.72873763037,699.636437764765,768.923317431687,346.900731331463,0,0,0,0,0,0,4,0,0,NaN,NaN,NaN,vertical,horizontal,vertical,none,none,none
1c,23,100166,4,17,209,19,F,NA,variable,homogeneous,3,absent,0.472323894500732,1,horizontal,horizontal,1,1.03528130054474,red,3,NaN,558.892763222174,683.019879386575,NaN,NaN,992.450942956807,767.295052392579,848.656293821019,349.685068220846,558.892763222174,683.019879386575,0,0,0,0,0,0,0,0,4,NaN,NaN,NaN,horizontal,horizontal,horizontal,none,none,none
1c,23,100166,4,18,210,19,F,NA,variable,homogeneous,6,absent,0.46993613243103,1,horizontal,horizontal,1,0.799994111061096,green,6,NaN,558.892763222174,683.019879386575,NaN,NaN,751.343706178981,850.314931779154,992.450942956807,767.295052392579,1041.10723677783,516.980120613425,848.656293821019,349.685068220846,607.549057043193,432.704947607421,558.892763222174,683.019879386575,0,0,0,0,0,4,vertical,vertical,horizontal,vertical,vertical,horizontal
1c,23,100166,4,19,211,19,F,NA,variable,homogeneous,3,present,0.437433004379272,1,vertical,vertical,1,0.894108986854553,red,1,3,804.450363641507,854.96116226488,576.971974679454,476.373546837184,804.450363641507,854.96116226488,1018.57766167904,468.665290897936,576.971974679454,476.373546837184,0,0,0,0,0,0,4,0,0,NaN,NaN,NaN,vertical,vertical,horizontal,none,none,none
1c,23,100166,4,20,212,19,F,NA,variable,homogeneous,5,present,0.743878841400146,1,vertical,vertical,1,0.670586156845093,green,4,3,692.232343256122,368.891514305654,986.495193912888,426.090418184063,751.343706178981,850.314931779154,1023.02802532055,723.626453162816,986.495193912888,426.090418184063,692.232343256122,368.891514305654,546.900731331463,631.076682568313,0,0,0,0,0,4,0,NaN,vertical,vertical,vertical,vertical,vertical,none
1c,23,100166,4,21,213,19,F,NA,variable,homogeneous,4,present,0.880886077880859,1,vertical,vertical,1,1.09410309791565,red,2,3,1041.10723677783,516.980120613425,716.980120613425,358.892763222174,883.019879386575,841.107236777826,1041.10723677783,516.980120613425,716.980120613425,358.892763222174,558.892763222174,683.019879386575,0,0,0,0,0,4,0,0,NaN,NaN,horizontal,vertical,vertical,horizontal,none,none
1c,23,100166,4,22,214,19,F,NA,variable,homogeneous,6,present,0.915248870849609,0,vertical,horizontal,1,1.02351694107056,green,2,1,989.501930496736,770.628304621509,746.982518841471,849.42763818712,746.982518841471,849.42763818712,989.501930496736,770.628304621509,1042.51941165526,521.200666434388,853.017481158529,350.57236181288,610.498069503264,429.371695378491,557.480588344736,678.799333565612,0,4,0,0,0,0,horizontal,vertical,horizontal,horizontal,horizontal,vertical
1c,23,100166,4,23,215,19,F,NA,variable,homogeneous,4,absent,0.739043951034546,1,horizontal,horizontal,1,0.858815908432007,green,2,NaN,1053.60308331891,573.345241866748,NaN,NaN,826.654758133252,853.60308331891,1053.60308331891,573.345241866748,773.345241866748,346.39691668109,546.39691668109,626.654758133252,0,0,0,0,0,4,0,0,NaN,NaN,horizontal,horizontal,vertical,horizontal,none,none
1c,23,100166,4,24,216,19,F,NA,variable,homogeneous,4,absent,0.69181489944458,1,horizontal,horizontal,1,0.905873346328735,red,2,NaN,989.501930496736,429.371695378491,NaN,NaN,970.628304621509,789.501930496736,989.501930496736,429.371695378491,629.371695378491,410.498069503264,610.498069503264,770.628304621509,0,0,0,0,0,4,0,0,NaN,NaN,vertical,horizontal,vertical,horizontal,none,none
1c,23,100166,4,25,217,19,F,NA,variable,homogeneous,3,present,0.564735174179077,1,horizontal,horizontal,1,0.952930784225464,green,1,3,907.767656743878,831.108485694346,545.970351986605,577.775285599347,907.767656743878,831.108485694346,946.261991269517,391.116228706307,545.970351986605,577.775285599347,0,0,0,0,0,0,4,0,0,NaN,NaN,NaN,horizontal,horizontal,horizontal,none,none,none
1c,23,100166,4,26,218,19,F,NA,variable,homogeneous,6,present,1.04719400405884,1,horizontal,horizontal,1,0.941166424751282,green,4,6,721.200666434388,357.480588344736,629.371695378491,789.501930496736,878.799333565612,842.519411655264,1049.42763818712,653.017481158529,970.628304621509,410.498069503264,721.200666434388,357.480588344736,550.57236181288,546.982518841471,629.371695378491,789.501930496736,0,0,0,4,0,0,horizontal,horizontal,vertical,horizontal,vertical,vertical
1c,23,100166,4,27,219,19,F,NA,variable,homogeneous,6,present,0.656333923339844,1,vertical,vertical,1,1.01175258159637,red,1,3,878.799333565612,842.519411655264,970.628304621509,410.498069503264,878.799333565612,842.519411655264,1049.42763818712,653.017481158529,970.628304621509,410.498069503264,721.200666434388,357.480588344736,550.57236181288,546.982518841471,629.371695378491,789.501930496736,4,0,0,0,0,0,vertical,horizontal,vertical,vertical,horizontal,vertical
1c,23,100166,4,28,220,19,F,NA,variable,homogeneous,3,absent,0.598278999328613,0,vertical,horizontal,1,0.82352283000946,green,3,NaN,650.114760665419,393.700666434388,NaN,NaN,696.282156015671,832.954091698863,1053.60308331891,573.345241866748,650.114760665419,393.700666434388,0,0,0,0,0,0,0,0,4,NaN,NaN,NaN,horizontal,horizontal,vertical,none,none,none
1c,23,100166,4,29,221,19,F,NA,variable,homogeneous,6,present,0.819098234176636,1,vertical,vertical,1,1.03528130054474,red,2,6,1020.83647796503,727.5,579.163522034968,727.5,800,855,1020.83647796503,727.5,1020.83647796503,472.5,800,345,579.163522034968,472.5,579.163522034968,727.5,0,4,0,0,0,0,vertical,vertical,vertical,horizontal,horizontal,vertical
1c,23,100166,4,30,222,19,F,NA,variable,homogeneous,5,present,0.634533882141113,1,vertical,vertical,1,0.752936673164368,red,2,1,986.495193912888,773.909581815937,692.232343256122,831.108485694346,692.232343256122,831.108485694346,986.495193912888,773.909581815937,1023.02802532055,476.373546837184,751.343706178981,349.685068220846,546.900731331463,568.923317431687,0,0,0,4,0,0,0,NaN,horizontal,vertical,vertical,vertical,vertical,none
1c,23,100166,4,31,223,19,F,NA,variable,homogeneous,3,present,0.579118013381958,1,vertical,vertical,1,0.976459503173828,red,2,1,919.715248510402,374.848363820974,935.129412379467,816.252264519889,935.129412379467,816.252264519889,919.715248510402,374.848363820974,545.155339110131,608.899371659138,0,0,0,0,0,0,0,4,0,NaN,NaN,NaN,horizontal,vertical,vertical,none,none,none
1c,23,100166,4,32,224,19,F,NA,variable,homogeneous,6,absent,0.553398847579956,1,vertical,vertical,1,0.717643594741821,green,4,NaN,777.775285599347,345.970351986605,NaN,NaN,822.224714400653,854.029648013395,1031.10848569435,707.767656743878,1008.88377129369,453.738008730483,777.775285599347,345.970351986605,568.891514305654,492.232343256122,591.116228706307,746.261991269517,0,0,0,4,0,0,horizontal,vertical,horizontal,vertical,vertical,vertical
1c,23,100166,4,33,225,19,F,NA,variable,homogeneous,6,absent,0.516876935958862,1,horizontal,horizontal,1,0.799994111061096,green,4,NaN,848.656293821019,349.685068220846,NaN,NaN,751.343706178981,850.314931779154,992.450942956807,767.295052392579,1041.10723677783,516.980120613425,848.656293821019,349.685068220846,607.549057043193,432.704947607421,558.892763222174,683.019879386575,0,0,0,4,0,0,horizontal,vertical,vertical,horizontal,horizontal,vertical
1c,23,100166,4,34,226,19,F,NA,variable,homogeneous,3,absent,0.561504125595093,1,vertical,vertical,1,0.9294020652771,green,2,NaN,1032.95409169886,496.282156015671,NaN,NaN,773.345241866748,853.60308331891,1032.95409169886,496.282156015671,593.700666434388,450.114760665419,0,0,0,0,0,0,0,4,0,NaN,NaN,NaN,horizontal,vertical,horizontal,none,none,none
1c,23,100166,4,35,227,19,F,NA,variable,homogeneous,5,present,0.689403057098389,1,horizontal,horizontal,1,0.811758470535278,green,3,4,1023.02802532055,476.373546837184,751.343706178981,349.685068220846,692.232343256122,831.108485694346,986.495193912888,773.909581815937,1023.02802532055,476.373546837184,751.343706178981,349.685068220846,546.900731331463,568.923317431687,0,0,0,0,4,0,0,NaN,vertical,horizontal,horizontal,horizontal,horizontal,none
1c,23,100166,4,36,228,19,F,NA,variable,homogeneous,5,absent,0.63689112663269,1,horizontal,horizontal,1,0.670586156845093,red,1,NaN,688.215357568785,829.192481806288,NaN,NaN,688.215357568785,829.192481806288,983.431649086356,777.137884467044,1025.15163617903,480.284751489598,755.719714694933,348.874022981887,547.481642470899,564.510859255183,0,0,4,0,0,0,0,NaN,horizontal,vertical,horizontal,horizontal,horizontal,none
1c,23,100166,4,37,229,19,F,NA,variable,homogeneous,3,present,0.59722900390625,1,horizontal,horizontal,1,0.976459503173828,red,3,2,574.848363820974,480.284751489598,1016.25226451989,464.870587620533,808.899371659138,854.844660889869,1016.25226451989,464.870587620533,574.848363820974,480.284751489598,0,0,0,0,0,0,0,0,4,NaN,NaN,NaN,vertical,horizontal,horizontal,none,none,none
1c,23,100166,4,38,230,19,F,NA,variable,homogeneous,6,absent,0.533262014389038,1,horizontal,horizontal,1,0.999988222122192,red,5,NaN,545.03883773512,595.549636358493,NaN,NaN,923.626453162816,823.028025320546,1054.96116226488,604.450363641507,931.334709102064,381.422338320961,676.373546837184,376.971974679454,545.03883773512,595.549636358493,668.665290897936,818.577661679039,0,0,0,0,4,0,horizontal,vertical,vertical,vertical,horizontal,vertical
1c,23,100166,4,39,231,19,F,NA,variable,homogeneous,3,absent,0.543571949005127,1,vertical,vertical,1,0.776465392112732,red,3,NaN,545.970351986605,622.224714400653,NaN,NaN,946.261991269517,808.883771293693,907.767656743878,368.891514305654,545.970351986605,622.224714400653,0,0,0,0,0,0,0,0,4,NaN,NaN,NaN,horizontal,horizontal,vertical,none,none,none
1c,23,100166,4,40,232,19,F,NA,variable,homogeneous,4,absent,0.481096982955933,0,horizontal,vertical,1,0.917637705802917,green,4,NaN,558.892763222174,516.980120613425,NaN,NaN,716.980120613425,841.107236777826,1041.10723677783,683.019879386575,883.019879386575,358.892763222174,558.892763222174,516.980120613425,0,0,0,0,0,0,0,4,NaN,NaN,vertical,vertical,vertical,horizontal,none,none
1c,23,100166,4,41,233,19,F,NA,variable,homogeneous,5,absent,0.590301990509033,1,vertical,vertical,1,0.964695143699646,green,3,NaN,1034.72873763037,500.363562235235,NaN,NaN,668.665290897936,818.577661679039,967.295052392579,792.450942956807,1034.72873763037,500.363562235235,777.775285599347,345.970351986605,551.535633479765,542.637481142314,0,0,0,0,4,0,0,NaN,horizontal,vertical,vertical,horizontal,vertical,none
1c,23,100166,4,42,234,19,F,NA,variable,homogeneous,4,absent,0.769662141799927,1,vertical,vertical,1,0.964695143699646,green,3,NaN,712.784863451954,360.378381699593,NaN,NaN,887.215136548046,839.621618300407,1039.62161830041,512.784863451954,712.784863451954,360.378381699593,560.378381699593,687.215136548046,0,0,0,0,0,0,4,0,NaN,NaN,horizontal,horizontal,vertical,horizontal,none,none
1c,23,100166,4,43,235,19,F,NA,variable,homogeneous,3,present,0.709672927856445,1,horizontal,horizontal,1,0.611764359474182,red,1,3,653.738008730483,808.883771293693,692.232343256122,368.891514305654,653.738008730483,808.883771293693,1054.0296480134,622.224714400653,692.232343256122,368.891514305654,0,0,0,0,0,0,4,0,0,NaN,NaN,NaN,horizontal,horizontal,horizontal,none,none,none
1c,23,100166,4,44,236,19,F,NA,variable,homogeneous,3,absent,0.606310844421387,1,horizontal,horizontal,1,0.729407954216003,green,2,NaN,1045.12173246427,529.712474266665,NaN,NaN,738.309916622085,847.425410200379,1045.12173246427,529.712474266665,616.568350913644,422.862115532956,0,0,0,0,0,0,0,4,0,NaN,NaN,NaN,vertical,horizontal,vertical,none,none,none
1c,23,100166,4,45,237,19,F,NA,variable,homogeneous,5,present,0.494544982910156,1,horizontal,horizontal,1,0.98822386264801,red,5,2,545.349468637584,613.345668841951,1013.86099482608,738.882953928832,734.001143498857,846.311085703712,1013.86099482608,738.882953928832,998.172220171528,439.523300282291,708.616172865948,361.936991243214,545.349468637584,613.345668841951,0,0,0,0,0,0,4,NaN,horizontal,horizontal,horizontal,vertical,horizontal,none
1c,23,100166,4,46,238,19,F,NA,variable,homogeneous,5,present,0.60982608795166,1,horizontal,horizontal,1,1.0588100194931,red,4,5,563.568117085469,504.475318678942,636.089159529932,795.341332995339,935.129412379467,816.252264519889,1047.42541020038,538.309916622085,817.787900804752,345.621167183745,563.568117085469,504.475318678942,636.089159529932,795.341332995339,0,0,0,0,0,4,0,NaN,horizontal,vertical,horizontal,horizontal,vertical,none
1c,23,100166,4,47,239,19,F,NA,variable,homogeneous,5,present,0.601803064346313,1,vertical,vertical,1,0.788229751586914,green,3,4,927.5,379.163522034968,629.371695378491,410.498069503264,826.654758133252,853.60308331891,1049.42763818712,653.017481158529,927.5,379.163522034968,629.371695378491,410.498069503264,567.045908301137,703.717843984329,0,0,0,0,4,0,0,NaN,vertical,vertical,vertical,vertical,vertical,none
1c,23,100166,4,48,240,19,F,NA,variable,homogeneous,3,absent,0.493706941604614,1,vertical,vertical,1,0.776465392112732,red,1,NaN,692.232343256122,831.108485694346,NaN,NaN,692.232343256122,831.108485694346,1054.0296480134,577.775285599347,653.738008730483,391.116228706307,0,0,0,0,0,0,4,0,0,NaN,NaN,NaN,vertical,horizontal,horizontal,none,none,none
1c,23,100166,4,49,241,19,F,NA,variable,homogeneous,4,present,1.35962295532227,0,horizontal,vertical,1,1.01175258159637,green,1,2,923.626453162816,823.028025320546,1023.02802532055,476.373546837184,923.626453162816,823.028025320546,1023.02802532055,476.373546837184,676.373546837184,376.971974679454,576.971974679454,723.626453162816,0,0,0,0,4,0,0,0,NaN,NaN,horizontal,horizontal,horizontal,vertical,none,none
1c,23,100166,4,50,242,19,F,NA,variable,homogeneous,6,present,0.623116016387939,0,horizontal,vertical,1,0.98822386264801,red,3,6,1018.57766167904,468.665290897936,581.422338320961,731.334709102064,804.450363641507,854.96116226488,1023.02802532055,723.626453162816,1018.57766167904,468.665290897936,795.549636358493,345.03883773512,576.971974679454,476.373546837184,581.422338320961,731.334709102064,0,0,4,0,0,0,vertical,horizontal,horizontal,vertical,horizontal,vertical
1c,23,100166,4,51,243,19,F,NA,variable,homogeneous,4,absent,0.591027975082397,0,vertical,horizontal,1,0.964695143699646,red,1,NaN,883.019879386575,841.107236777826,NaN,NaN,883.019879386575,841.107236777826,1041.10723677783,516.980120613425,716.980120613425,358.892763222174,558.892763222174,683.019879386575,0,0,0,0,4,0,0,0,NaN,NaN,vertical,horizontal,horizontal,vertical,none,none
1c,23,100166,4,52,244,19,F,NA,variable,homogeneous,6,present,1.20285892486572,1,vertical,vertical,1,0.788229751586914,green,6,3,579.163522034968,727.5,1020.83647796503,472.5,800,855,1020.83647796503,727.5,1020.83647796503,472.5,800,345,579.163522034968,472.5,579.163522034968,727.5,0,0,0,0,0,4,horizontal,vertical,vertical,vertical,horizontal,vertical
1c,23,100166,4,53,245,19,F,NA,variable,homogeneous,6,absent,0.496131181716919,1,vertical,vertical,1,1.04704566001892,red,6,NaN,593.700666434388,749.885239334581,NaN,NaN,826.654758133252,853.60308331891,1032.95409169886,703.717843984329,1006.29933356561,450.114760665419,773.345241866748,346.39691668109,567.045908301137,496.282156015671,593.700666434388,749.885239334581,0,0,0,0,0,4,vertical,vertical,horizontal,vertical,horizontal,vertical
