experiment,subject,uniqueID,block,trial,trial_cumulative,age,gender,color_cond_blocking,color_history,shape_type,set_size,distractor,rt,acc,target_orient,response_key,response_made,iti,target_color,target_item,distractor_item,target_X,target_Y,distractor_X,distractor_Y,item1_X,item1_Y,item2_X,item2_Y,item3_X,item3_Y,item4_X,item4_Y,item5_X,item5_Y,item6_X,item6_Y,item1_shape,item2_shape,item3_shape,item4_shape,item5_shape,item6_shape,item1_line,item2_line,item3_line,item4_line,item5_line,item6_line
1c,24,100167,1,1,1,25,F,NA,variable,homogeneous,3,present,NaN,0,vertical,none,0,0.917641973495483,green,2,1,967.295052392579,407.549057043193,883.019879386575,841.107236777826,883.019879386575,841.107236777826,967.295052392579,407.549057043193,549.685068220846,551.343706178981,0,0,0,0,0,0,0,4,0,NaN,NaN,NaN,horizontal,vertical,vertical,none,none,none
1c,24,100167,1,2,2,25,F,NA,variable,homogeneous,3,present,1.4445538520813,1,vertical,vertical,1,0.694116140294958,red,3,2,572.793336331966,484.232422566416,1013.86099482608,461.117046071168,813.345668841951,854.650531362416,1013.86099482608,461.117046071168,572.793336331966,484.232422566416,0,0,0,0,0,0,0,0,4,NaN,NaN,NaN,vertical,vertical,vertical,none,none,none
1c,24,100167,1,3,3,25,F,NA,variable,homogeneous,6,present,0.880575895309448,1,vertical,vertical,1,0.764703245516177,red,2,5,1020.83647796503,727.5,579.163522034968,472.5,800,855,1020.83647796503,727.5,1020.83647796503,472.5,800,345,579.163522034968,472.5,579.163522034968,727.5,0,4,0,0,0,0,vertical,vertical,horizontal,horizontal,vertical,horizontal
1c,24,100167,1,4,4,25,F,NA,variable,homogeneous,5,absent,0.830504894256592,1,vertical,vertical,1,0.623529035073739,green,4,NaN,650.114760665419,393.700666434388,NaN,NaN,800,855,1042.51941165526,678.799333565612,949.885239334581,393.700666434388,650.114760665419,393.700666434388,557.480588344736,678.799333565612,0,0,0,0,0,4,0,NaN,vertical,vertical,vertical,vertical,horizontal,none
1c,24,100167,1,5,5,25,F,NA,variable,homogeneous,4,absent,0.700496912002563,1,horizontal,horizontal,1,0.847054868274265,green,1,NaN,773.345241866748,853.60308331891,NaN,NaN,773.345241866748,853.60308331891,1053.60308331891,626.654758133252,826.654758133252,346.39691668109,546.39691668109,573.345241866748,0,0,0,0,4,0,0,0,NaN,NaN,horizontal,vertical,vertical,vertical,none,none
1c,24,100167,1,6,6,25,F,NA,variable,homogeneous,6,present,0.724305868148804,1,horizontal,horizontal,1,1.09410973654853,red,5,4,650.114760665419,393.700666434388,903.717843984329,367.045908301137,696.282156015671,832.954091698863,949.885239334581,806.299333565612,1053.60308331891,573.345241866748,903.717843984329,367.045908301137,650.114760665419,393.700666434388,546.39691668109,626.654758133252,0,0,0,0,4,0,vertical,horizontal,vertical,vertical,horizontal,vertical
1c,24,100167,1,7,7,25,F,NA,variable,homogeneous,4,present,0.670182943344116,1,vertical,vertical,1,0.764703245516177,green,4,2,601.827779828472,760.476699717708,998.172220171528,439.523300282291,960.476699717708,798.172220171528,998.172220171528,439.523300282291,639.523300282292,401.827779828472,601.827779828472,760.476699717708,0,0,0,0,0,0,0,4,NaN,NaN,horizontal,vertical,vertical,vertical,none,none
1c,24,100167,1,8,8,25,F,NA,variable,homogeneous,6,absent,0.508791923522949,1,horizontal,horizontal,1,1.04705166640105,green,5,NaN,661.117046071168,386.139005173917,NaN,NaN,684.232422566416,827.206663668034,938.882953928832,813.860994826083,1054.65053136242,586.654331158049,915.767577433584,372.793336331966,661.117046071168,386.139005173917,545.349468637584,613.345668841951,0,0,0,0,4,0,vertical,horizontal,horizontal,horizontal,horizontal,vertical
1c,24,100167,1,9,9,25,F,NA,variable,homogeneous,4,present,0.806329011917114,0,horizontal,vertical,1,0.752938727979307,red,2,1,1054.96116226488,604.450363641507,795.549636358493,854.96116226488,795.549636358493,854.96116226488,1054.96116226488,604.450363641507,804.450363641507,345.03883773512,545.03883773512,595.549636358493,0,0,0,0,0,4,0,0,NaN,NaN,vertical,horizontal,horizontal,horizontal,none,none
1c,24,100167,1,10,10,25,F,NA,variable,homogeneous,3,present,1.09718894958496,0,horizontal,vertical,1,0.929406491032353,red,2,1,1025.15163617903,480.284751489598,791.100628340862,854.844660889869,791.100628340862,854.844660889869,1025.15163617903,480.284751489598,583.747735480111,464.870587620533,0,0,0,0,0,0,0,4,0,NaN,NaN,NaN,vertical,horizontal,vertical,none,none,none
1c,24,100167,1,11,11,25,F,NA,variable,homogeneous,6,present,0.894824028015137,1,vertical,vertical,1,0.776467763053046,green,2,1,1006.29933356561,749.885239334581,773.345241866748,853.60308331891,773.345241866748,853.60308331891,1006.29933356561,749.885239334581,1032.95409169886,496.282156015671,826.654758133252,346.39691668109,593.700666434388,450.114760665419,567.045908301137,703.717843984329,0,4,0,0,0,0,horizontal,vertical,horizontal,vertical,horizontal,horizontal
1c,24,100167,1,12,12,25,F,NA,variable,homogeneous,6,present,0.792309999465942,1,horizontal,horizontal,1,0.764703245516177,green,4,6,911.784642431215,370.807518193712,545.621167183745,617.787900804752,688.215357568785,829.192481806288,942.594190385041,811.404581001536,1054.37883281626,582.212099195248,911.784642431215,370.807518193712,657.405809614959,388.595418998464,545.621167183745,617.787900804752,0,0,0,4,0,0,vertical,vertical,vertical,horizontal,vertical,vertical
1c,24,100167,1,13,13,25,F,NA,variable,homogeneous,5,present,0.596578121185303,1,vertical,vertical,1,0.61176451753687,red,3,5,973.909581815937,413.504806087112,549.685068220846,648.656293821019,768.923317431687,853.099268668537,1031.10848569435,707.767656743878,973.909581815937,413.504806087112,676.373546837184,376.971974679454,549.685068220846,648.656293821019,0,0,0,0,4,0,0,NaN,horizontal,vertical,vertical,vertical,vertical,none
1c,24,100167,1,14,14,25,F,NA,variable,homogeneous,5,present,0.963660955429077,1,horizontal,horizontal,1,0.952935526106093,red,1,4,878.799333565612,842.519411655264,593.700666434388,450.114760665419,878.799333565612,842.519411655264,1055,600,878.799333565612,357.480588344736,593.700666434388,450.114760665419,593.700666434388,749.885239334581,0,0,4,0,0,0,0,NaN,horizontal,vertical,horizontal,vertical,vertical,none
1c,24,100167,1,15,15,25,F,NA,variable,homogeneous,4,present,0.651219844818115,1,horizontal,horizontal,1,0.999993596253572,green,3,2,725.445215295702,356.142287229426,1043.85771277057,525.445215295702,874.554784704298,843.857712770574,1043.85771277057,525.445215295702,725.445215295702,356.142287229426,556.142287229426,674.554784704298,0,0,0,0,0,0,4,0,NaN,NaN,vertical,vertical,horizontal,vertical,none,none
1c,24,100167,1,16,16,25,F,NA,variable,homogeneous,6,absent,0.601874113082886,1,vertical,vertical,1,1.07058070147479,green,1,NaN,919.715248510402,825.151636179026,NaN,NaN,919.715248510402,825.151636179026,1054.84466088987,608.899371659138,935.129412379467,383.747735480111,680.284751489598,374.848363820974,545.155339110131,591.100628340862,664.870587620533,816.252264519889,4,0,0,0,0,0,vertical,vertical,vertical,horizontal,horizontal,vertical
1c,24,100167,1,17,17,25,F,NA,variable,homogeneous,5,absent,0.727554082870483,1,horizontal,horizontal,1,1.07058070147479,green,2,NaN,1036.43188291453,695.524681321058,NaN,NaN,782.212099195248,854.378832816255,1036.43188291453,695.524681321058,963.910840470068,404.658667004661,664.870587620533,383.747735480111,552.574589799621,661.690083377915,0,0,0,4,0,0,0,NaN,horizontal,horizontal,vertical,horizontal,horizontal,none
1c,24,100167,1,18,18,25,F,NA,variable,homogeneous,4,absent,0.762428998947144,1,horizontal,horizontal,1,0.61176451753687,red,1,NaN,927.5,820.836477965032,NaN,NaN,927.5,820.836477965032,1020.83647796503,472.5,672.5,379.163522034968,579.163522034968,727.5,0,0,0,0,4,0,0,0,NaN,NaN,horizontal,vertical,vertical,horizontal,none,none
1c,24,100167,1,19,19,25,F,NA,variable,homogeneous,4,absent,0.631203174591064,1,vertical,vertical,1,0.870583903348004,red,3,NaN,764.510859255183,347.4816424709,NaN,NaN,835.489140744817,852.518357529101,1052.5183575291,564.510859255183,764.510859255183,347.4816424709,547.481642470899,635.489140744817,0,0,0,0,0,0,4,0,NaN,NaN,vertical,vertical,vertical,horizontal,none,none
1c,24,100167,1,20,20,25,F,NA,variable,homogeneous,6,absent,0.836289882659912,1,vertical,vertical,1,0.823525833200525,red,5,NaN,643.006323791957,399.057257830286,NaN,NaN,704.475318678942,836.431882914531,956.993676208043,800.942742169714,1052.5183575291,564.510859255183,895.524681321058,363.568117085469,643.006323791957,399.057257830286,547.481642470899,635.489140744817,0,0,0,0,4,0,horizontal,vertical,horizontal,horizontal,vertical,vertical
1c,24,100167,1,21,21,25,F,NA,variable,homogeneous,5,present,0.591097831726074,1,horizontal,horizontal,1,0.694116140294958,red,2,5,1053.09926866854,568.923317431687,613.504806087112,773.909581815937,907.767656743878,831.108485694346,1053.09926866854,568.923317431687,848.656293821019,349.685068220846,576.971974679454,476.373546837184,613.504806087112,773.909581815937,0,0,0,4,0,0,0,NaN,vertical,horizontal,horizontal,horizontal,horizontal,none
1c,24,100167,1,22,22,25,F,NA,variable,homogeneous,6,absent,0.792906999588013,1,horizontal,horizontal,1,1.07058070147479,red,5,NaN,581.422338320961,468.665290897936,NaN,NaN,795.549636358493,854.96116226488,1018.57766167904,731.334709102064,1023.02802532055,476.373546837184,804.450363641507,345.03883773512,581.422338320961,468.665290897936,576.971974679454,723.626453162816,0,0,0,0,4,0,vertical,horizontal,vertical,horizontal,horizontal,horizontal
1c,24,100167,1,23,23,25,F,NA,variable,homogeneous,3,absent,0.606506109237671,1,horizontal,horizontal,1,1.08234521901166,red,1,NaN,848.656293821019,850.314931779154,NaN,NaN,848.656293821019,850.314931779154,992.450942956807,432.704947607421,558.892763222174,516.980120613425,0,0,0,0,0,0,4,0,0,NaN,NaN,NaN,horizontal,horizontal,horizontal,none,none,none
1c,24,100167,1,24,24,25,F,NA,variable,homogeneous,3,present,0.610192060470581,1,horizontal,horizontal,1,0.776467763053046,red,3,2,561.936991243214,508.616172865948,998.172220171528,439.523300282291,839.890788585259,851.86052685176,998.172220171528,439.523300282291,561.936991243214,508.616172865948,0,0,0,0,0,0,0,0,4,NaN,NaN,NaN,horizontal,horizontal,horizontal,none,none,none
1c,24,100167,1,25,25,25,F,NA,variable,homogeneous,3,absent,0.853473901748657,1,horizontal,horizontal,1,0.952935526106093,red,2,NaN,861.690083377915,352.574589799621,NaN,NaN,983.431649086356,777.137884467044,861.690083377915,352.574589799621,554.878267535729,670.287525733335,0,0,0,0,0,0,0,4,0,NaN,NaN,NaN,vertical,horizontal,horizontal,none,none,none
1c,24,100167,1,26,26,25,F,NA,variable,homogeneous,3,absent,0.450668096542358,1,vertical,vertical,1,0.999993596253572,green,1,NaN,826.654758133252,853.60308331891,NaN,NaN,826.654758133252,853.60308331891,1006.29933356561,450.114760665419,567.045908301137,496.282156015671,0,0,0,0,0,0,4,0,0,NaN,NaN,NaN,vertical,vertical,vertical,none,none,none
1c,24,100167,1,27,27,25,F,NA,variable,homogeneous,5,absent,0.50057315826416,1,horizontal,horizontal,1,0.835290350737395,red,5,NaN,547.481642470899,564.510859255183,NaN,NaN,688.215357568785,829.192481806288,983.431649086356,777.137884467044,1025.15163617903,480.284751489598,755.719714694933,348.874022981887,547.481642470899,564.510859255183,0,0,0,0,0,0,4,NaN,vertical,horizontal,horizontal,horizontal,horizontal,none
1c,24,100167,1,28,28,25,F,NA,variable,homogeneous,4,present,0.855800867080688,0,vertical,horizontal,1,1.05881618393792,red,3,1,664.870587620533,383.747735480111,935.129412379467,816.252264519889,935.129412379467,816.252264519889,1016.25226451989,464.870587620533,664.870587620533,383.747735480111,583.747735480111,735.129412379467,0,0,0,0,0,0,4,0,NaN,NaN,horizontal,horizontal,vertical,vertical,none,none
1c,24,100167,1,29,29,25,F,NA,variable,homogeneous,5,present,0.708735942840576,0,vertical,horizontal,1,0.776467763053046,green,5,2,549.685068220846,648.656293821019,1031.10848569435,707.767656743878,768.923317431687,853.099268668537,1031.10848569435,707.767656743878,973.909581815937,413.504806087112,676.373546837184,376.971974679454,549.685068220846,648.656293821019,0,0,0,0,0,0,4,NaN,horizontal,horizontal,horizontal,horizontal,vertical,none
1c,24,100167,1,30,30,25,F,NA,variable,homogeneous,6,absent,0.919566869735718,1,vertical,vertical,1,0.623529035073739,red,3,NaN,1003.65205506206,446.537169096228,NaN,NaN,831.076682568313,853.099268668537,1034.72873763037,699.636437764765,1003.65205506206,446.537169096228,768.923317431687,346.900731331463,565.271262369628,500.363562235235,596.34794493794,753.462830903772,0,0,4,0,0,0,horizontal,horizontal,vertical,vertical,vertical,vertical
1c,24,100167,1,31,31,25,F,NA,variable,homogeneous,6,present,0.536044120788574,0,vertical,horizontal,1,0.894112938421744,red,1,6,826.654758133252,853.60308331891,593.700666434388,749.885239334581,826.654758133252,853.60308331891,1032.95409169886,703.717843984329,1006.29933356561,450.114760665419,773.345241866748,346.39691668109,567.045908301137,496.282156015671,593.700666434388,749.885239334581,4,0,0,0,0,0,vertical,vertical,horizontal,vertical,vertical,horizontal
1c,24,100167,1,32,32,25,F,NA,variable,homogeneous,5,absent,0.809895038604736,1,vertical,vertical,1,0.752938727979307,red,5,NaN,548.874022981887,555.719714694933,NaN,NaN,680.284751489598,825.151636179026,977.137884467044,783.431649086356,1029.19248180629,488.215357568785,764.510859255183,347.4816424709,548.874022981887,555.719714694933,0,0,0,0,0,0,4,NaN,horizontal,vertical,vertical,vertical,vertical,none
1c,24,100167,1,33,33,25,F,NA,variable,homogeneous,3,absent,0.630308866500854,1,horizontal,horizontal,1,0.6,green,1,NaN,684.232422566416,827.206663668034,NaN,NaN,684.232422566416,827.206663668034,1054.65053136242,586.654331158049,661.117046071168,386.139005173917,0,0,0,0,0,0,4,0,0,NaN,NaN,NaN,horizontal,horizontal,horizontal,none,none,none
1c,24,100167,1,34,34,25,F,NA,variable,homogeneous,5,absent,0.74362587928772,1,horizontal,horizontal,1,0.835290350737395,red,3,NaN,953.462830903772,396.34794493794,NaN,NaN,795.549636358493,854.96116226488,1041.10723677783,683.019879386575,953.462830903772,396.34794493794,653.738008730483,391.116228706307,556.142287229426,674.554784704298,0,0,0,0,4,0,0,NaN,vertical,vertical,horizontal,horizontal,vertical,none
1c,24,100167,1,35,35,25,F,NA,variable,homogeneous,5,present,0.797430992126465,1,horizontal,horizontal,1,0.729409692905567,green,2,3,960.476699717708,798.172220171528,1038.06300875679,508.616172865948,661.117046071168,813.860994826083,960.476699717708,798.172220171528,1038.06300875679,508.616172865948,786.654331158049,345.349468637584,553.688914296288,534.001143498857,0,0,0,4,0,0,0,NaN,vertical,horizontal,horizontal,horizontal,vertical,none
1c,24,100167,1,36,36,25,F,NA,variable,homogeneous,6,present,0.862988948822021,1,vertical,vertical,1,0.670587105221218,green,5,1,563.568117085469,504.475318678942,835.489140744817,852.518357529101,835.489140744817,852.518357529101,1036.43188291453,695.524681321058,1000.94274216971,443.006323791957,764.510859255183,347.4816424709,563.568117085469,504.475318678942,599.057257830286,756.993676208043,0,0,0,0,4,0,vertical,vertical,horizontal,horizontal,vertical,vertical
1c,24,100167,1,37,37,25,F,NA,variable,homogeneous,6,absent,0.963592052459717,1,horizontal,horizontal,1,0.964700043642962,red,4,NaN,692.232343256122,368.891514305654,NaN,NaN,907.767656743878,831.108485694346,1054.0296480134,622.224714400653,946.261991269517,391.116228706307,692.232343256122,368.891514305654,545.970351986605,577.775285599347,653.738008730483,808.883771293693,0,0,0,4,0,0,horizontal,horizontal,horizontal,horizontal,vertical,horizontal
1c,24,100167,1,38,38,25,F,NA,variable,homogeneous,3,present,0.835475921630859,1,horizontal,horizontal,1,1.02352263132731,green,3,2,549.685068220846,551.343706178981,967.295052392579,407.549057043193,883.019879386575,841.107236777826,967.295052392579,407.549057043193,549.685068220846,551.343706178981,0,0,0,0,0,0,0,0,4,NaN,NaN,NaN,horizontal,vertical,horizontal,none,none,none
1c,24,100167,1,39,39,25,F,NA,variable,homogeneous,4,absent,0.58869194984436,1,vertical,vertical,1,0.6,green,3,NaN,768.923317431687,346.900731331463,NaN,NaN,831.076682568313,853.099268668537,1053.09926866854,568.923317431687,768.923317431687,346.900731331463,546.900731331463,631.076682568313,0,0,0,0,0,0,4,0,NaN,NaN,vertical,horizontal,vertical,horizontal,none,none
1c,24,100167,1,40,40,25,F,NA,variable,homogeneous,5,absent,0.868582963943481,1,vertical,vertical,1,0.799996798126786,green,1,NaN,839.890788585259,851.86052685176,NaN,NaN,839.890788585259,851.86052685176,1051.86052685176,639.890788585259,915.767577433584,372.793336331966,619.68777079743,419.68777079743,572.793336331966,715.767577433584,0,0,4,0,0,0,0,NaN,vertical,vertical,vertical,horizontal,horizontal,none
1c,24,100167,1,41,41,25,F,NA,variable,homogeneous,3,present,0.783786058425903,1,vertical,vertical,1,1.07058070147479,green,1,2,672.5,820.836477965032,1055,600,672.5,820.836477965032,1055,600,672.5,379.163522034968,0,0,0,0,0,0,4,0,0,NaN,NaN,NaN,vertical,horizontal,horizontal,none,none,none
1c,24,100167,1,42,42,25,F,NA,variable,homogeneous,5,present,0.58761191368103,1,vertical,vertical,1,1.02352263132731,green,1,3,935.129412379467,816.252264519889,817.787900804752,345.621167183745,935.129412379467,816.252264519889,1047.42541020038,538.309916622085,817.787900804752,345.621167183745,563.568117085469,504.475318678942,636.089159529932,795.341332995339,0,0,4,0,0,0,0,NaN,vertical,vertical,horizontal,horizontal,horizontal,none
1c,24,100167,1,43,43,25,F,NA,variable,homogeneous,3,present,1.38789200782776,0,vertical,horizontal,1,0.6,red,2,1,1038.06300875679,691.383827134052,601.827779828472,760.476699717708,601.827779828472,760.476699717708,1038.06300875679,691.383827134052,760.109211414741,348.13947314824,0,0,0,0,0,0,0,4,0,NaN,NaN,NaN,vertical,vertical,horizontal,none,none,none
1c,24,100167,1,44,44,25,F,NA,variable,homogeneous,6,absent,0.684546947479248,1,horizontal,horizontal,1,0.823525833200525,green,6,NaN,610.498069503264,770.628304621509,NaN,NaN,853.017481158529,849.42763818712,1042.51941165526,678.799333565612,989.501930496736,429.371695378491,746.982518841471,350.57236181288,557.480588344736,521.200666434388,610.498069503264,770.628304621509,0,0,0,0,0,4,horizontal,horizontal,vertical,vertical,horizontal,horizontal
1c,24,100167,1,45,45,25,F,NA,variable,homogeneous,3,absent,0.675396203994751,1,vertical,vertical,1,0.658822587684349,red,2,NaN,1000.94274216971,443.006323791957,NaN,NaN,835.489140744817,852.518357529101,1000.94274216971,443.006323791957,563.568117085469,504.475318678942,0,0,0,0,0,0,0,4,0,NaN,NaN,NaN,horizontal,vertical,horizontal,none,none,none
1c,24,100167,1,46,46,25,F,NA,variable,homogeneous,3,absent,0.998356103897095,1,vertical,vertical,1,1.05881618393792,green,2,NaN,907.767656743878,368.891514305654,NaN,NaN,946.261991269517,808.883771293693,907.767656743878,368.891514305654,545.970351986605,622.224714400653,0,0,0,0,0,0,0,4,0,NaN,NaN,NaN,horizontal,vertical,vertical,none,none,none
1c,24,100167,1,47,47,25,F,NA,variable,homogeneous,4,absent,0.963042974472046,1,vertical,vertical,1,1.03528714886418,green,4,NaN,546.900731331463,631.076682568313,NaN,NaN,831.076682568313,853.099268668537,1053.09926866854,568.923317431687,768.923317431687,346.900731331463,546.900731331463,631.076682568313,0,0,0,0,0,0,0,4,NaN,NaN,horizontal,horizontal,horizontal,vertical,none,none
1c,24,100167,1,48,48,25,F,NA,variable,homogeneous,5,absent,0.625907897949219,1,vertical,vertical,1,0.988229078716702,red,5,NaN,552.574589799621,538.309916622085,NaN,NaN,664.870587620533,816.252264519889,963.910840470068,795.341332995339,1036.43188291453,504.475318678942,782.212099195248,345.621167183745,552.574589799621,538.309916622085,0,0,0,0,0,0,4,NaN,vertical,horizontal,horizontal,vertical,vertical,none
1c,24,100167,1,49,49,25,F,NA,variable,homogeneous,4,present,0.484879970550537,1,vertical,vertical,1,0.705880657831828,green,2,3,1043.85771277057,525.445215295702,725.445215295702,356.142287229426,874.554784704298,843.857712770574,1043.85771277057,525.445215295702,725.445215295702,356.142287229426,556.142287229426,674.554784704298,0,0,0,0,0,4,0,0,NaN,NaN,horizontal,vertical,vertical,vertical,none,none
1c,24,100167,1,50,50,25,F,NA,variable,homogeneous,3,absent,0.475044965744019,1,vertical,vertical,1,0.811761315663656,red,2,NaN,960.476699717708,401.827779828472,NaN,NaN,891.383827134052,838.063008756786,960.476699717708,401.827779828472,548.13947314824,560.109211414741,0,0,0,0,0,0,0,4,0,NaN,NaN,NaN,horizontal,vertical,vertical,none,none,none
1c,24,100167,1,51,51,25,F,NA,variable,homogeneous,4,present,0.485018968582153,1,horizontal,horizontal,1,0.61176451753687,red,1,2,956.993676208043,800.942742169714,1000.94274216971,443.006323791957,956.993676208043,800.942742169714,1000.94274216971,443.006323791957,643.006323791957,399.057257830286,599.057257830286,756.993676208043,0,0,0,0,4,0,0,0,NaN,NaN,horizontal,horizontal,vertical,vertical,none,none
1c,24,100167,1,52,52,25,F,NA,variable,homogeneous,5,present,0.584898948669434,1,vertical,vertical,1,0.894112938421744,red,4,3,626.090418184063,413.504806087112,923.626453162816,376.971974679454,831.076682568313,853.099268668537,1050.31493177915,648.656293821019,923.626453162816,376.971974679454,626.090418184063,413.504806087112,568.891514305654,707.767656743878,0,0,0,0,0,4,0,NaN,horizontal,horizontal,vertical,vertical,horizontal,none
1c,24,100167,1,53,53,25,F,NA,variable,homogeneous,5,absent,0.564648151397705,1,horizontal,horizontal,1,0.6,green,4,NaN,751.343706178981,349.685068220846,NaN,NaN,692.232343256122,831.108485694346,986.495193912888,773.909581815937,1023.02802532055,476.373546837184,751.343706178981,349.685068220846,546.900731331463,568.923317431687,0,0,0,0,0,4,0,NaN,vertical,vertical,vertical,horizontal,vertical,none
1c,24,100167,1,54,54,25,F,NA,variable,homogeneous,4,absent,0.877177953720093,1,vertical,vertical,1,0.647058070147479,red,4,NaN,588.595418998464,457.40580961496,NaN,NaN,657.405809614959,811.404581001536,1011.40458100154,742.594190385041,942.594190385041,388.595418998464,588.595418998464,457.40580961496,0,0,0,0,0,0,0,4,NaN,NaN,vertical,horizontal,vertical,vertical,none,none
1c,24,100167,1,55,55,25,F,NA,variable,homogeneous,4,absent,0.615082979202271,1,horizontal,horizontal,1,0.61176451753687,red,3,NaN,835.489140744817,347.4816424709,NaN,NaN,764.510859255183,852.518357529101,1052.5183575291,635.489140744817,835.489140744817,347.4816424709,547.481642470899,564.510859255183,0,0,0,0,0,0,4,0,NaN,NaN,vertical,horizontal,horizontal,vertical,none,none
1c,24,100167,1,56,56,25,F,NA,variable,homogeneous,5,present,0.779758930206299,1,horizontal,horizontal,1,0.811761315663656,green,3,5,891.383827134052,361.936991243214,586.139005173917,738.882953928832,865.998856501143,846.311085703712,1054.65053136242,613.345668841951,891.383827134052,361.936991243214,601.827779828472,439.523300282291,586.139005173917,738.882953928832,0,0,0,0,4,0,0,NaN,horizontal,vertical,horizontal,vertical,horizontal,none
1c,24,100167,1,57,57,25,F,NA,variable,homogeneous,3,absent,0.552098035812378,1,horizontal,horizontal,1,1.02352263132731,green,2,NaN,938.882953928832,386.139005173917,NaN,NaN,915.767577433584,827.206663668034,938.882953928832,386.139005173917,545.349468637584,586.654331158049,0,0,0,0,0,0,0,4,0,NaN,NaN,NaN,horizontal,horizontal,vertical,none,none,none
1c,24,100167,1,58,58,25,F,NA,variable,homogeneous,4,present,0.855965852737427,1,horizontal,horizontal,1,1.03528714886418,green,1,2,643.006323791957,800.942742169714,1000.94274216971,756.993676208043,643.006323791957,800.942742169714,1000.94274216971,756.993676208043,956.993676208043,399.057257830286,599.057257830286,443.006323791957,0,0,0,0,4,0,0,0,NaN,NaN,horizontal,horizontal,vertical,horizontal,none,none
1c,24,100167,1,59,59,25,F,NA,variable,homogeneous,3,present,0.522862911224365,1,horizontal,horizontal,1,0.882348420884874,green,2,1,1008.88377129369,453.738008730483,822.224714400653,854.029648013395,822.224714400653,854.029648013395,1008.88377129369,453.738008730483,568.891514305654,492.232343256122,0,0,0,0,0,0,0,4,0,NaN,NaN,NaN,horizontal,horizontal,horizontal,none,none,none
1c,24,100167,1,60,60,25,F,NA,variable,homogeneous,6,present,0.830939054489136,1,horizontal,horizontal,1,0.858819385811135,red,5,1,567.045908301137,496.282156015671,826.654758133252,853.60308331891,826.654758133252,853.60308331891,1032.95409169886,703.717843984329,1006.29933356561,450.114760665419,773.345241866748,346.39691668109,567.045908301137,496.282156015671,593.700666434388,749.885239334581,0,0,0,0,4,0,vertical,horizontal,horizontal,vertical,horizontal,vertical
1c,24,100167,1,61,61,25,F,NA,variable,homogeneous,4,absent,0.513844013214111,1,horizontal,horizontal,1,0.905877455958614,green,4,NaN,550.57236181288,653.017481158529,NaN,NaN,853.017481158529,849.42763818712,1049.42763818712,546.982518841471,746.982518841471,350.57236181288,550.57236181288,653.017481158529,0,0,0,0,0,0,0,4,NaN,NaN,vertical,vertical,vertical,horizontal,none,none
1c,24,100167,1,62,62,25,F,NA,variable,homogeneous,6,absent,0.645627021789551,1,vertical,vertical,1,0.870583903348004,green,4,NaN,738.309916622085,352.574589799621,NaN,NaN,861.690083377915,847.425410200379,1045.12173246427,670.287525733335,983.431649086356,422.862115532956,738.309916622085,352.574589799621,554.878267535729,529.712474266665,616.568350913644,777.137884467044,0,0,0,4,0,0,vertical,vertical,horizontal,vertical,vertical,horizontal
1c,24,100167,1,63,63,25,F,NA,variable,homogeneous,4,present,0.639033079147339,1,vertical,vertical,1,0.847054868274265,red,4,1,579.163522034968,472.5,672.5,820.836477965032,672.5,820.836477965032,1020.83647796503,727.5,927.5,379.163522034968,579.163522034968,472.5,0,0,0,0,0,0,0,4,NaN,NaN,vertical,vertical,horizontal,vertical,none,none
1c,24,100167,1,64,64,25,F,NA,variable,homogeneous,6,present,0.639372110366821,1,horizontal,horizontal,1,0.952935526106093,green,1,2,738.309916622085,847.425410200379,983.431649086356,777.137884467044,738.309916622085,847.425410200379,983.431649086356,777.137884467044,1045.12173246427,529.712474266665,861.690083377915,352.574589799621,616.568350913644,422.862115532956,554.878267535729,670.287525733335,4,0,0,0,0,0,horizontal,vertical,horizontal,vertical,horizontal,horizontal
1c,24,100167,2,1,65,25,F,NA,variable,homogeneous,4,absent,0.690485000610352,1,vertical,vertical,1,0.647058070147479,red,3,NaN,813.345668841951,345.349468637584,NaN,NaN,786.654331158049,854.650531362416,1054.65053136242,613.345668841951,813.345668841951,345.349468637584,545.349468637584,586.654331158049,0,0,0,0,0,0,4,0,NaN,NaN,horizontal,vertical,vertical,horizontal,none,none
1c,24,100167,2,2,66,25,F,NA,variable,homogeneous,4,present,0.654283046722412,1,horizontal,horizontal,1,0.894112938421744,green,2,4,1016.25226451989,464.870587620533,583.747735480111,735.129412379467,935.129412379467,816.252264519889,1016.25226451989,464.870587620533,664.870587620533,383.747735480111,583.747735480111,735.129412379467,0,0,0,0,0,4,0,0,NaN,NaN,horizontal,horizontal,horizontal,vertical,none,none
1c,24,100167,2,3,67,25,F,NA,variable,homogeneous,6,present,0.584136962890625,1,vertical,vertical,1,0.835290350737395,green,6,3,557.480588344736,678.799333565612,1042.51941165526,521.200666434388,746.982518841471,849.42763818712,989.501930496736,770.628304621509,1042.51941165526,521.200666434388,853.017481158529,350.57236181288,610.498069503264,429.371695378491,557.480588344736,678.799333565612,0,0,0,0,0,4,vertical,horizontal,horizontal,vertical,vertical,vertical
1c,24,100167,2,4,68,25,F,NA,variable,homogeneous,4,present,0.619449853897095,1,horizontal,horizontal,1,0.976464561179832,red,2,1,1054.84466088987,608.899371659138,791.100628340862,854.844660889869,791.100628340862,854.844660889869,1054.84466088987,608.899371659138,808.899371659138,345.155339110131,545.155339110131,591.100628340862,0,0,0,0,0,4,0,0,NaN,NaN,vertical,horizontal,vertical,vertical,none,none
1c,24,100167,2,5,69,25,F,NA,variable,homogeneous,3,absent,0.439930200576782,1,vertical,vertical,1,1.01175811379044,red,3,NaN,755.719714694933,348.874022981887,NaN,NaN,604.658667004661,763.910840470068,1039.62161830041,687.215136548046,755.719714694933,348.874022981887,0,0,0,0,0,0,0,0,4,NaN,NaN,NaN,vertical,horizontal,vertical,none,none,none
1c,24,100167,2,6,70,25,F,NA,variable,homogeneous,5,present,0.807729959487915,1,vertical,vertical,1,0.929406491032353,green,4,1,583.747735480111,464.870587620533,895.524681321058,836.431882914531,895.524681321058,836.431882914531,1054.37883281626,582.212099195248,861.690083377915,352.574589799621,583.747735480111,464.870587620533,604.658667004661,763.910840470068,0,0,0,0,0,4,0,NaN,horizontal,horizontal,horizontal,vertical,horizontal,none
1c,24,100167,2,7,71,25,F,NA,variable,homogeneous,3,absent,0.650697946548462,0,vertical,horizontal,1,0.929406491032353,red,1,NaN,808.899371659138,854.844660889869,NaN,NaN,808.899371659138,854.844660889869,1016.25226451989,464.870587620533,574.848363820974,480.284751489598,0,0,0,0,0,0,4,0,0,NaN,NaN,NaN,vertical,vertical,horizontal,none,none,none
1c,24,100167,2,8,72,25,F,NA,variable,homogeneous,6,present,0.776798009872437,1,horizontal,horizontal,1,0.847054868274265,red,2,6,1047.42541020038,661.690083377915,622.862115532956,783.431649086356,870.287525733335,845.121732464271,1047.42541020038,661.690083377915,977.137884467044,416.568350913644,729.712474266665,354.878267535729,552.574589799621,538.309916622085,622.862115532956,783.431649086356,0,4,0,0,0,0,vertical,horizontal,horizontal,vertical,vertical,vertical
1c,24,100167,2,9,73,25,F,NA,variable,homogeneous,4,absent,0.419159889221191,1,vertical,vertical,1,0.929406491032353,red,3,NaN,632.704947607421,407.549057043193,NaN,NaN,967.295052392579,792.450942956807,992.450942956807,432.704947607421,632.704947607421,407.549057043193,607.549057043193,767.295052392579,0,0,0,0,0,0,4,0,NaN,NaN,vertical,vertical,vertical,horizontal,none,none
1c,24,100167,2,10,74,25,F,NA,variable,homogeneous,5,absent,0.461104869842529,1,vertical,vertical,1,1.07058070147479,red,3,NaN,1027.20666366803,484.232422566416,NaN,NaN,684.232422566416,827.206663668034,980.31222920257,780.31222920257,1027.20666366803,484.232422566416,760.109211414741,348.13947314824,548.13947314824,560.109211414741,0,0,0,0,4,0,0,NaN,horizontal,vertical,vertical,horizontal,horizontal,none
1c,24,100167,2,11,75,25,F,NA,variable,homogeneous,6,present,0.512525796890259,1,horizontal,horizontal,1,1.09410973654853,green,4,3,835.489140744817,347.4816424709,1036.43188291453,504.475318678942,764.510859255183,852.518357529101,1000.94274216971,756.993676208043,1036.43188291453,504.475318678942,835.489140744817,347.4816424709,599.057257830286,443.006323791957,563.568117085469,695.524681321058,0,0,0,4,0,0,vertical,vertical,horizontal,horizontal,horizontal,horizontal
1c,24,100167,2,12,76,25,F,NA,variable,homogeneous,3,absent,0.587287902832031,1,horizontal,horizontal,1,0.623529035073739,red,3,NaN,734.001143498857,353.688914296288,NaN,NaN,619.68777079743,780.31222920257,1046.31108570371,665.998856501143,734.001143498857,353.688914296288,0,0,0,0,0,0,0,0,4,NaN,NaN,NaN,horizontal,vertical,horizontal,none,none,none
1c,24,100167,2,13,77,25,F,NA,variable,homogeneous,4,present,0.580591201782227,1,horizontal,horizontal,1,1.07058070147479,red,4,2,557.480588344736,521.200666434388,1042.51941165526,678.799333565612,721.200666434388,842.519411655264,1042.51941165526,678.799333565612,878.799333565612,357.480588344736,557.480588344736,521.200666434388,0,0,0,0,0,0,0,4,NaN,NaN,vertical,vertical,horizontal,horizontal,none,none
1c,24,100167,2,14,78,25,F,NA,variable,homogeneous,5,present,0.533754110336304,1,vertical,vertical,1,0.658822587684349,red,5,3,572.793336331966,715.767577433584,915.767577433584,372.793336331966,839.890788585259,851.86052685176,1051.86052685176,639.890788585259,915.767577433584,372.793336331966,619.68777079743,419.68777079743,572.793336331966,715.767577433584,0,0,0,0,0,0,4,NaN,vertical,horizontal,horizontal,vertical,vertical,none
1c,24,100167,2,15,79,25,F,NA,variable,homogeneous,4,present,0.462276935577393,1,vertical,vertical,1,0.682351622758088,green,3,2,795.549636358493,345.03883773512,1054.96116226488,595.549636358493,804.450363641507,854.96116226488,1054.96116226488,595.549636358493,795.549636358493,345.03883773512,545.03883773512,604.450363641507,0,0,0,0,0,0,4,0,NaN,NaN,vertical,horizontal,vertical,horizontal,none,none
1c,24,100167,2,16,80,25,F,NA,variable,homogeneous,6,absent,0.579616785049438,1,horizontal,horizontal,1,1.01175811379044,green,4,NaN,835.489140744817,347.4816424709,NaN,NaN,764.510859255183,852.518357529101,1000.94274216971,756.993676208043,1036.43188291453,504.475318678942,835.489140744817,347.4816424709,599.057257830286,443.006323791957,563.568117085469,695.524681321058,0,0,0,4,0,0,vertical,horizontal,vertical,horizontal,vertical,vertical
1c,24,100167,2,17,81,25,F,NA,variable,homogeneous,6,present,0.647300004959106,1,vertical,vertical,1,0.976464561179832,red,5,3,657.405809614959,388.595418998464,1054.37883281626,582.212099195248,688.215357568785,829.192481806288,942.594190385041,811.404581001536,1054.37883281626,582.212099195248,911.784642431215,370.807518193712,657.405809614959,388.595418998464,545.621167183745,617.787900804752,0,0,0,0,4,0,horizontal,horizontal,horizontal,horizontal,vertical,vertical
1c,24,100167,2,18,82,25,F,NA,variable,homogeneous,5,absent,0.554098844528198,1,horizontal,horizontal,1,1.08234521901166,green,3,NaN,1029.19248180629,488.215357568785,NaN,NaN,680.284751489598,825.151636179026,977.137884467044,783.431649086356,1029.19248180629,488.215357568785,764.510859255183,347.4816424709,548.874022981887,555.719714694933,0,0,0,0,4,0,0,NaN,vertical,vertical,horizontal,horizontal,vertical,none
1c,24,100167,2,19,83,25,F,NA,variable,homogeneous,5,present,0.509598970413208,1,vertical,vertical,1,0.999993596253572,green,3,4,895.524681321058,363.568117085469,604.658667004661,436.089159529932,861.690083377915,847.425410200379,1054.37883281626,617.787900804752,895.524681321058,363.568117085469,604.658667004661,436.089159529932,583.747735480111,735.129412379467,0,0,0,0,4,0,0,NaN,vertical,horizontal,vertical,vertical,vertical,none
1c,24,100167,2,20,84,25,F,NA,variable,homogeneous,6,absent,0.762197971343994,1,vertical,vertical,1,0.717645175368698,red,2,NaN,1055,600,NaN,NaN,927.5,820.836477965032,1055,600,927.5,379.163522034968,672.5,379.163522034968,545,600,672.5,820.836477965032,0,4,0,0,0,0,vertical,vertical,vertical,horizontal,vertical,vertical
1c,24,100167,2,21,85,25,F,NA,variable,homogeneous,6,present,0.586845874786377,1,vertical,vertical,1,0.658822587684349,green,5,3,565.271262369628,500.363562235235,1003.65205506206,446.537169096228,831.076682568313,853.099268668537,1034.72873763037,699.636437764765,1003.65205506206,446.537169096228,768.923317431687,346.900731331463,565.271262369628,500.363562235235,596.34794493794,753.462830903772,0,0,0,0,4,0,vertical,vertical,vertical,vertical,vertical,horizontal
1c,24,100167,2,22,86,25,F,NA,variable,homogeneous,6,absent,0.513542890548706,1,horizontal,horizontal,1,0.929406491032353,red,5,NaN,646.537169096228,396.34794493794,NaN,NaN,700.363562235235,834.728737630372,953.462830903772,803.65205506206,1053.09926866854,568.923317431687,899.636437764765,365.271262369628,646.537169096228,396.34794493794,546.900731331463,631.076682568313,0,0,0,0,4,0,vertical,horizontal,horizontal,vertical,horizontal,vertical
1c,24,100167,2,23,87,25,F,NA,variable,homogeneous,4,absent,0.492723941802979,1,horizontal,horizontal,1,0.847054868274265,green,4,NaN,586.139005173917,461.117046071168,NaN,NaN,661.117046071168,813.860994826083,1013.86099482608,738.882953928832,938.882953928832,386.139005173917,586.139005173917,461.117046071168,0,0,0,0,0,0,0,4,NaN,NaN,horizontal,vertical,horizontal,horizontal,none,none
1c,24,100167,2,24,88,25,F,NA,variable,homogeneous,4,absent,0.678518056869507,1,vertical,vertical,1,0.988229078716702,green,3,NaN,672.5,379.163522034968,NaN,NaN,927.5,820.836477965032,1020.83647796503,472.5,672.5,379.163522034968,579.163522034968,727.5,0,0,0,0,0,0,4,0,NaN,NaN,horizontal,horizontal,vertical,vertical,none,none
1c,24,100167,2,25,89,25,F,NA,variable,homogeneous,5,present,0.711328983306885,0,horizontal,vertical,1,0.741174210442437,red,3,2,839.890788585259,348.13947314824,1051.86052685176,560.109211414741,915.767577433584,827.206663668034,1051.86052685176,560.109211414741,839.890788585259,348.13947314824,572.793336331966,484.232422566416,619.68777079743,780.31222920257,0,0,0,0,4,0,0,NaN,horizontal,vertical,horizontal,horizontal,horizontal,none
1c,24,100167,2,26,90,25,F,NA,variable,homogeneous,5,absent,0.519948959350586,1,horizontal,horizontal,1,0.929406491032353,red,5,NaN,549.685068220846,648.656293821019,NaN,NaN,768.923317431687,853.099268668537,1031.10848569435,707.767656743878,973.909581815937,413.504806087112,676.373546837184,376.971974679454,549.685068220846,648.656293821019,0,0,0,0,0,0,4,NaN,vertical,vertical,vertical,horizontal,horizontal,none
1c,24,100167,2,27,91,25,F,NA,variable,homogeneous,5,absent,0.806582927703857,0,horizontal,vertical,1,0.799996798126786,red,4,NaN,725.445215295702,356.142287229426,NaN,NaN,716.980120613425,841.107236777826,1003.65205506206,753.462830903772,1008.88377129369,453.738008730483,725.445215295702,356.142287229426,545.03883773512,595.549636358493,0,0,0,0,0,4,0,NaN,vertical,horizontal,vertical,horizontal,horizontal,none
1c,24,100167,2,28,92,25,F,NA,variable,homogeneous,5,present,1.43123507499695,1,vertical,vertical,1,0.61176451753687,red,4,3,639.523300282292,401.827779828472,938.882953928832,386.139005173917,813.345668841951,854.650531362416,1046.31108570371,665.998856501143,938.882953928832,386.139005173917,639.523300282292,401.827779828472,561.936991243214,691.383827134052,0,0,0,0,0,4,0,NaN,horizontal,vertical,horizontal,vertical,vertical,none
1c,24,100167,2,29,93,25,F,NA,variable,homogeneous,4,present,1.14844393730164,1,vertical,vertical,1,0.623529035073739,red,2,1,1049.42763818712,653.017481158529,746.982518841471,849.42763818712,746.982518841471,849.42763818712,1049.42763818712,653.017481158529,853.017481158529,350.57236181288,550.57236181288,546.982518841471,0,0,0,0,0,4,0,0,NaN,NaN,horizontal,vertical,horizontal,vertical,none,none
1c,24,100167,2,30,94,25,F,NA,variable,homogeneous,5,present,0.875719785690308,1,horizontal,horizontal,1,0.799996798126786,green,5,4,545.970351986605,622.224714400653,700.363562235235,365.271262369628,742.637481142314,848.464366520235,1018.57766167904,731.334709102064,992.450942956807,432.704947607421,700.363562235235,365.271262369628,545.970351986605,622.224714400653,0,0,0,0,0,0,4,NaN,horizontal,vertical,vertical,vertical,horizontal,none
1c,24,100167,2,31,95,25,F,NA,variable,homogeneous,6,present,0.839811086654663,1,vertical,vertical,1,0.929406491032353,red,6,5,548.874022981887,644.280285305067,636.089159529932,404.658667004661,712.784863451954,839.621618300407,963.910840470068,795.341332995339,1051.12597701811,555.719714694933,887.215136548046,360.378381699593,636.089159529932,404.658667004661,548.874022981887,644.280285305067,0,0,0,0,0,4,horizontal,vertical,horizontal,vertical,horizontal,vertical
1c,24,100167,2,32,96,25,F,NA,variable,homogeneous,6,present,0.737308979034424,1,horizontal,horizontal,1,0.823525833200525,green,6,5,646.537169096228,803.65205506206,546.900731331463,568.923317431687,899.636437764765,834.728737630372,1053.09926866854,631.076682568313,953.462830903772,396.34794493794,700.363562235235,365.271262369628,546.900731331463,568.923317431687,646.537169096228,803.65205506206,0,0,0,0,0,4,vertical,horizontal,vertical,horizontal,vertical,horizontal
1c,24,100167,2,33,97,25,F,NA,variable,homogeneous,5,absent,0.612162113189697,1,horizontal,horizontal,1,0.999993596253572,green,2,NaN,1003.65205506206,753.462830903772,NaN,NaN,716.980120613425,841.107236777826,1003.65205506206,753.462830903772,1008.88377129369,453.738008730483,725.445215295702,356.142287229426,545.03883773512,595.549636358493,0,0,0,4,0,0,0,NaN,vertical,horizontal,horizontal,vertical,horizontal,none
1c,24,100167,2,34,98,25,F,NA,variable,homogeneous,4,absent,0.495005130767822,1,horizontal,horizontal,1,0.917641973495483,red,1,NaN,931.334709102064,818.577661679039,NaN,NaN,931.334709102064,818.577661679039,1018.57766167904,468.665290897936,668.665290897936,381.422338320961,581.422338320961,731.334709102064,0,0,0,0,4,0,0,0,NaN,NaN,horizontal,vertical,vertical,vertical,none,none
1c,24,100167,2,35,99,25,F,NA,variable,homogeneous,3,present,0.554803133010864,1,vertical,vertical,1,1.08234521901166,green,3,1,579.163522034968,727.5,1020.83647796503,727.5,1020.83647796503,727.5,800,345,579.163522034968,727.5,0,0,0,0,0,0,0,0,4,NaN,NaN,NaN,vertical,vertical,vertical,none,none,none
1c,24,100167,2,36,100,25,F,NA,variable,homogeneous,4,absent,0.490642070770264,1,vertical,vertical,1,1.03528714886418,green,1,NaN,768.923317431687,853.099268668537,NaN,NaN,768.923317431687,853.099268668537,1053.09926866854,631.076682568313,831.076682568313,346.900731331463,546.900731331463,568.923317431687,0,0,0,0,4,0,0,0,NaN,NaN,vertical,vertical,horizontal,vertical,none,none
1c,24,100167,2,37,101,25,F,NA,variable,homogeneous,4,present,0.852595806121826,1,horizontal,horizontal,1,0.6,green,3,1,907.767656743878,368.891514305654,692.232343256122,831.108485694346,692.232343256122,831.108485694346,1031.10848569435,707.767656743878,907.767656743878,368.891514305654,568.891514305654,492.232343256122,0,0,0,0,0,0,4,0,NaN,NaN,horizontal,vertical,horizontal,vertical,none,none
1c,24,100167,2,38,102,25,F,NA,variable,homogeneous,6,absent,0.55841588973999,1,vertical,vertical,1,0.635293552610609,green,3,NaN,1055,600,NaN,NaN,672.5,820.836477965032,927.5,820.836477965032,1055,600,927.5,379.163522034968,672.5,379.163522034968,545,600,0,0,4,0,0,0,vertical,horizontal,vertical,horizontal,horizontal,horizontal
1c,24,100167,2,39,103,25,F,NA,variable,homogeneous,6,absent,0.514462947845459,1,vertical,vertical,1,0.823525833200525,green,1,NaN,700.363562235235,834.728737630372,NaN,NaN,700.363562235235,834.728737630372,953.462830903772,803.65205506206,1053.09926866854,568.923317431687,899.636437764765,365.271262369628,646.537169096228,396.34794493794,546.900731331463,631.076682568313,4,0,0,0,0,0,vertical,horizontal,vertical,vertical,vertical,vertical
1c,24,100167,2,40,104,25,F,NA,variable,homogeneous,4,present,0.502514839172363,1,vertical,vertical,1,1.09410973654853,green,3,1,786.654331158049,345.349468637584,813.345668841951,854.650531362416,813.345668841951,854.650531362416,1054.65053136242,586.654331158049,786.654331158049,345.349468637584,545.349468637584,613.345668841951,0,0,0,0,0,0,4,0,NaN,NaN,vertical,vertical,vertical,horizontal,none,none
1c,24,100167,2,41,105,25,F,NA,variable,homogeneous,3,present,0.812790155410767,0,horizontal,vertical,1,0.799996798126786,red,2,1,1050.31493177915,551.343706178981,716.980120613425,841.107236777826,716.980120613425,841.107236777826,1050.31493177915,551.343706178981,632.704947607421,407.549057043193,0,0,0,0,0,0,0,4,0,NaN,NaN,NaN,vertical,horizontal,horizontal,none,none,none
1c,24,100167,2,42,106,25,F,NA,variable,homogeneous,4,absent,0.738549947738647,1,horizontal,horizontal,1,1.05881618393792,red,3,NaN,619.68777079743,419.68777079743,NaN,NaN,980.31222920257,780.31222920257,980.31222920257,419.68777079743,619.68777079743,419.68777079743,619.68777079743,780.31222920257,0,0,0,0,0,0,4,0,NaN,NaN,horizontal,horizontal,horizontal,vertical,none,none
1c,24,100167,2,43,107,25,F,NA,variable,homogeneous,4,present,0.506558179855347,1,vertical,vertical,1,1.05881618393792,red,2,3,1029.19248180629,488.215357568785,688.215357568785,370.807518193712,911.784642431215,829.192481806288,1029.19248180629,488.215357568785,688.215357568785,370.807518193712,570.807518193712,711.784642431215,0,0,0,0,0,4,0,0,NaN,NaN,vertical,vertical,horizontal,vertical,none,none
1c,24,100167,2,44,108,25,F,NA,variable,homogeneous,3,present,0.619165897369385,1,horizontal,horizontal,1,0.905877455958614,green,2,1,861.690083377915,352.574589799621,983.431649086356,777.137884467044,983.431649086356,777.137884467044,861.690083377915,352.574589799621,554.878267535729,670.287525733335,0,0,0,0,0,0,0,4,0,NaN,NaN,NaN,horizontal,horizontal,horizontal,none,none,none
1c,24,100167,2,45,109,25,F,NA,variable,homogeneous,6,absent,0.457370042800903,1,horizontal,horizontal,1,0.882348420884874,red,3,NaN,983.431649086356,422.862115532956,NaN,NaN,861.690083377915,847.425410200379,1045.12173246427,670.287525733335,983.431649086356,422.862115532956,738.309916622085,352.574589799621,554.878267535729,529.712474266665,616.568350913644,777.137884467044,0,0,4,0,0,0,horizontal,vertical,horizontal,vertical,vertical,vertical
1c,24,100167,2,46,110,25,F,NA,variable,homogeneous,3,absent,0.614398002624512,1,horizontal,horizontal,1,0.988229078716702,green,1,NaN,919.715248510402,825.151636179026,NaN,NaN,919.715248510402,825.151636179026,935.129412379467,383.747735480111,545.155339110131,591.100628340862,0,0,0,0,0,0,4,0,0,NaN,NaN,NaN,horizontal,vertical,horizontal,none,none,none
1c,24,100167,2,47,111,25,F,NA,variable,homogeneous,3,present,0.659142017364502,1,vertical,vertical,1,0.61176451753687,green,2,3,1029.19248180629,711.784642431215,782.212099195248,345.621167183745,588.595418998464,742.594190385041,1029.19248180629,711.784642431215,782.212099195248,345.621167183745,0,0,0,0,0,0,0,4,0,NaN,NaN,NaN,vertical,vertical,horizontal,none,none,none
1c,24,100167,2,48,112,25,F,NA,variable,homogeneous,3,absent,0.478589057922363,1,vertical,vertical,1,0.694116140294958,green,1,NaN,938.882953928832,813.860994826083,NaN,NaN,938.882953928832,813.860994826083,915.767577433584,372.793336331966,545.349468637584,613.345668841951,0,0,0,0,0,0,4,0,0,NaN,NaN,NaN,vertical,vertical,horizontal,none,none,none
1c,24,100167,2,49,113,25,F,NA,variable,homogeneous,5,present,0.651262998580933,1,horizontal,horizontal,1,0.752938727979307,red,3,1,973.909581815937,413.504806087112,768.923317431687,853.099268668537,768.923317431687,853.099268668537,1031.10848569435,707.767656743878,973.909581815937,413.504806087112,676.373546837184,376.971974679454,549.685068220846,648.656293821019,0,0,0,0,4,0,0,NaN,vertical,vertical,horizontal,vertical,horizontal,none
1c,24,100167,2,50,114,25,F,NA,variable,homogeneous,3,absent,0.752941846847534,1,vertical,vertical,1,0.823525833200525,green,2,NaN,1049.42763818712,546.982518841471,NaN,NaN,721.200666434388,842.519411655264,1049.42763818712,546.982518841471,629.371695378491,410.498069503264,0,0,0,0,0,0,0,4,0,NaN,NaN,NaN,horizontal,vertical,vertical,none,none,none
1c,24,100167,2,51,115,25,F,NA,variable,homogeneous,6,absent,0.569049835205078,1,vertical,vertical,1,1.03528714886418,red,4,NaN,891.383827134052,361.936991243214,NaN,NaN,708.616172865948,838.063008756786,960.476699717708,798.172220171528,1051.86052685176,560.109211414741,891.383827134052,361.936991243214,639.523300282292,401.827779828472,548.13947314824,639.890788585259,0,0,0,4,0,0,vertical,horizontal,vertical,vertical,horizontal,horizontal
1c,24,100167,2,52,116,25,F,NA,variable,homogeneous,3,present,0.629248857498169,1,vertical,vertical,1,0.835290350737395,red,3,1,593.700666434388,450.114760665419,773.345241866748,853.60308331891,773.345241866748,853.60308331891,1032.95409169886,496.282156015671,593.700666434388,450.114760665419,0,0,0,0,0,0,0,0,4,NaN,NaN,NaN,horizontal,horizontal,vertical,none,none,none
1c,24,100167,2,53,117,25,F,NA,variable,homogeneous,3,present,0.612571954727173,1,horizontal,horizontal,1,0.917641973495483,green,3,2,548.874022981887,644.280285305067,887.215136548046,360.378381699593,963.910840470068,795.341332995339,887.215136548046,360.378381699593,548.874022981887,644.280285305067,0,0,0,0,0,0,0,0,4,NaN,NaN,NaN,vertical,vertical,horizontal,none,none,none
1c,24,100167,2,54,118,25,F,NA,variable,homogeneous,3,absent,0.606822967529297,1,horizontal,horizontal,1,0.694116140294958,red,1,NaN,588.595418998464,742.594190385041,NaN,NaN,588.595418998464,742.594190385041,1029.19248180629,711.784642431215,782.212099195248,345.621167183745,0,0,0,0,0,0,4,0,0,NaN,NaN,NaN,horizontal,vertical,horizontal,none,none,none
1c,24,100167,2,55,119,25,F,NA,variable,homogeneous,5,absent,0.503301858901978,1,vertical,vertical,1,0.61176451753687,green,2,NaN,973.909581815937,786.495193912888,NaN,NaN,676.373546837184,823.028025320546,973.909581815937,786.495193912888,1031.10848569435,492.232343256122,768.923317431687,346.900731331463,549.685068220846,551.343706178981,0,0,0,4,0,0,0,NaN,horizontal,vertical,vertical,vertical,vertical,none
1c,24,100167,2,56,120,25,F,NA,variable,homogeneous,6,absent,0.815701007843018,1,horizontal,horizontal,1,0.717645175368698,green,5,NaN,650.114760665419,393.700666434388,NaN,NaN,696.282156015671,832.954091698863,949.885239334581,806.299333565612,1053.60308331891,573.345241866748,903.717843984329,367.045908301137,650.114760665419,393.700666434388,546.39691668109,626.654758133252,0,0,0,0,4,0,horizontal,horizontal,horizontal,horizontal,horizontal,horizontal
1c,24,100167,2,57,121,25,F,NA,variable,homogeneous,4,absent,0.601741075515747,1,horizontal,horizontal,1,1.07058070147479,green,4,NaN,546.39691668109,626.654758133252,NaN,NaN,826.654758133252,853.60308331891,1053.60308331891,573.345241866748,773.345241866748,346.39691668109,546.39691668109,626.654758133252,0,0,0,0,0,0,0,4,NaN,NaN,vertical,horizontal,vertical,horizontal,none,none
1c,24,100167,2,58,122,25,F,NA,variable,homogeneous,3,present,0.955875873565674,1,horizontal,horizontal,1,1.08234521901166,red,3,1,610.498069503264,429.371695378491,746.982518841471,849.42763818712,746.982518841471,849.42763818712,1042.51941165526,521.200666434388,610.498069503264,429.371695378491,0,0,0,0,0,0,0,0,4,NaN,NaN,NaN,vertical,horizontal,horizontal,none,none,none
1c,24,100167,2,59,123,25,F,NA,variable,homogeneous,5,absent,0.588669061660767,1,vertical,vertical,1,0.682351622758088,red,1,NaN,887.215136548046,839.621618300407,NaN,NaN,887.215136548046,839.621618300407,1054.84466088987,591.100628340862,870.287525733335,354.878267535729,588.595418998464,457.40580961496,599.057257830286,756.993676208043,0,0,4,0,0,0,0,NaN,vertical,horizontal,horizontal,vertical,vertical,none
1c,24,100167,2,60,124,25,F,NA,variable,homogeneous,3,present,0.935277938842773,1,vertical,vertical,1,0.941171008569223,red,3,1,567.045908301137,496.282156015671,826.654758133252,853.60308331891,826.654758133252,853.60308331891,1006.29933356561,450.114760665419,567.045908301137,496.282156015671,0,0,0,0,0,0,0,0,4,NaN,NaN,NaN,vertical,vertical,vertical,none,none,none
1c,24,100167,2,61,125,25,F,NA,variable,homogeneous,5,absent,0.663658857345581,1,vertical,vertical,1,0.658822587684349,green,4,NaN,632.704947607421,407.549057043193,NaN,NaN,822.224714400653,854.029648013395,1048.46436652023,657.362518857686,931.334709102064,381.422338320961,632.704947607421,407.549057043193,565.271262369628,699.636437764765,0,0,0,0,0,4,0,NaN,horizontal,horizontal,horizontal,vertical,horizontal,none
1c,24,100167,2,62,126,25,F,NA,variable,homogeneous,6,present,0.415389776229858,1,horizontal,horizontal,1,0.729409692905567,red,1,6,865.998856501143,846.311085703712,619.68777079743,780.31222920257,865.998856501143,846.311085703712,1046.31108570371,665.998856501143,980.31222920257,419.68777079743,734.001143498857,353.688914296288,553.688914296288,534.001143498857,619.68777079743,780.31222920257,4,0,0,0,0,0,horizontal,horizontal,vertical,vertical,vertical,vertical
1c,24,100167,2,63,127,25,F,NA,variable,homogeneous,3,absent,0.436781167984009,1,horizontal,horizontal,1,0.835290350737395,green,3,NaN,545.621167183745,617.787900804752,NaN,NaN,942.594190385041,811.404581001536,911.784642431215,370.807518193712,545.621167183745,617.787900804752,0,0,0,0,0,0,0,0,4,NaN,NaN,NaN,horizontal,horizontal,horizontal,none,none,none
1c,24,100167,2,64,128,25,F,NA,variable,homogeneous,5,present,0.727148056030273,1,horizontal,horizontal,1,0.670587105221218,green,3,1,895.524681321058,363.568117085469,861.690083377915,847.425410200379,861.690083377915,847.425410200379,1054.37883281626,617.787900804752,895.524681321058,363.568117085469,604.658667004661,436.089159529932,583.747735480111,735.129412379467,0,0,0,0,4,0,0,NaN,vertical,vertical,horizontal,vertical,horizontal,none
1c,24,100167,3,1,129,25,F,NA,variable,homogeneous,4,present,0.584888935089111,1,horizontal,horizontal,1,0.623529035073739,green,2,1,1041.10723677783,516.980120613425,883.019879386575,841.107236777826,883.019879386575,841.107236777826,1041.10723677783,516.980120613425,716.980120613425,358.892763222174,558.892763222174,683.019879386575,0,0,0,0,0,4,0,0,NaN,NaN,vertical,horizontal,horizontal,horizontal,none,none
1c,24,100167,3,2,130,25,F,NA,variable,homogeneous,3,absent,0.458927869796753,1,horizontal,horizontal,1,0.705880657831828,red,1,NaN,786.654331158049,854.650531362416,NaN,NaN,786.654331158049,854.650531362416,1027.20666366803,484.232422566416,586.139005173917,461.117046071168,0,0,0,0,0,0,4,0,0,NaN,NaN,NaN,horizontal,vertical,horizontal,none,none,none
1c,24,100167,3,3,131,25,F,NA,variable,homogeneous,4,absent,0.531660079956055,1,vertical,vertical,1,0.976464561179832,red,2,NaN,1008.88377129369,746.261991269517,NaN,NaN,653.738008730483,808.883771293693,1008.88377129369,746.261991269517,946.261991269517,391.116228706307,591.116228706307,453.738008730483,0,0,0,0,0,4,0,0,NaN,NaN,horizontal,vertical,vertical,horizontal,none,none
1c,24,100167,3,4,132,25,F,NA,variable,homogeneous,4,absent,0.67151403427124,1,vertical,vertical,1,1.04705166640105,green,2,NaN,1018.57766167904,468.665290897936,NaN,NaN,931.334709102064,818.577661679039,1018.57766167904,468.665290897936,668.665290897936,381.422338320961,581.422338320961,731.334709102064,0,0,0,0,0,4,0,0,NaN,NaN,horizontal,vertical,vertical,horizontal,none,none
1c,24,100167,3,5,133,25,F,NA,variable,homogeneous,5,absent,0.80420184135437,1,vertical,vertical,1,0.752938727979307,green,5,NaN,650.114760665419,806.299333565612,NaN,NaN,949.885239334581,806.299333565612,1042.51941165526,521.200666434388,800,345,557.480588344736,521.200666434388,650.114760665419,806.299333565612,0,0,0,0,0,0,4,NaN,horizontal,vertical,vertical,horizontal,vertical,none
1c,24,100167,3,6,134,25,F,NA,variable,homogeneous,3,absent,0.755356073379517,1,horizontal,horizontal,1,0.741174210442437,green,1,NaN,639.523300282292,798.172220171528,NaN,NaN,639.523300282292,798.172220171528,1051.86052685176,639.890788585259,708.616172865948,361.936991243214,0,0,0,0,0,0,4,0,0,NaN,NaN,NaN,horizontal,horizontal,vertical,none,none,none
1c,24,100167,3,7,135,25,F,NA,variable,homogeneous,4,present,0.80954909324646,1,vertical,vertical,1,0.941171008569223,red,4,2,545.349468637584,586.654331158049,1054.65053136242,613.345668841951,786.654331158049,854.650531362416,1054.65053136242,613.345668841951,813.345668841951,345.349468637584,545.349468637584,586.654331158049,0,0,0,0,0,0,0,4,NaN,NaN,horizontal,horizontal,vertical,vertical,none,none
1c,24,100167,3,8,136,25,F,NA,variable,homogeneous,6,absent,0.446282148361206,1,vertical,vertical,1,0.623529035073739,red,3,NaN,1023.02802532055,476.373546837184,NaN,NaN,795.549636358493,854.96116226488,1018.57766167904,731.334709102064,1023.02802532055,476.373546837184,804.450363641507,345.03883773512,581.422338320961,468.665290897936,576.971974679454,723.626453162816,0,0,4,0,0,0,horizontal,horizontal,vertical,horizontal,horizontal,horizontal
1c,24,100167,3,9,137,25,F,NA,variable,homogeneous,6,present,0.617893218994141,1,horizontal,horizontal,1,0.729409692905567,green,4,3,878.799333565612,357.480588344736,1049.42763818712,546.982518841471,721.200666434388,842.519411655264,970.628304621509,789.501930496736,1049.42763818712,546.982518841471,878.799333565612,357.480588344736,629.371695378491,410.498069503264,550.57236181288,653.017481158529,0,0,0,4,0,0,horizontal,horizontal,horizontal,horizontal,vertical,vertical
1c,24,100167,3,10,138,25,F,NA,variable,homogeneous,4,present,0.644915103912354,1,horizontal,horizontal,1,0.917641973495483,green,2,1,1016.25226451989,464.870587620533,935.129412379467,816.252264519889,935.129412379467,816.252264519889,1016.25226451989,464.870587620533,664.870587620533,383.747735480111,583.747735480111,735.129412379467,0,0,0,0,0,4,0,0,NaN,NaN,vertical,horizontal,horizontal,vertical,none,none
1c,24,100167,3,11,139,25,F,NA,variable,homogeneous,4,present,0.447371006011963,1,horizontal,horizontal,1,0.670587105221218,red,4,2,547.481642470899,564.510859255183,1052.5183575291,635.489140744817,764.510859255183,852.518357529101,1052.5183575291,635.489140744817,835.489140744817,347.4816424709,547.481642470899,564.510859255183,0,0,0,0,0,0,0,4,NaN,NaN,horizontal,horizontal,horizontal,horizontal,none,none
1c,24,100167,3,12,140,25,F,NA,variable,homogeneous,5,present,0.497637033462524,0,vertical,horizontal,1,0.658822587684349,green,4,2,599.057257830286,443.006323791957,1054.84466088987,608.899371659138,870.287525733335,845.121732464271,1054.84466088987,608.899371659138,887.215136548046,360.378381699593,599.057257830286,443.006323791957,588.595418998464,742.594190385041,0,0,0,0,0,4,0,NaN,vertical,vertical,horizontal,vertical,horizontal,none
1c,24,100167,3,13,141,25,F,NA,variable,homogeneous,3,present,0.441992998123169,1,vertical,vertical,1,0.717645175368698,red,3,1,672.5,379.163522034968,672.5,820.836477965032,672.5,820.836477965032,1055,600,672.5,379.163522034968,0,0,0,0,0,0,0,0,4,NaN,NaN,NaN,horizontal,horizontal,vertical,none,none,none
1c,24,100167,3,14,142,25,F,NA,variable,homogeneous,5,absent,0.614000797271729,1,horizontal,horizontal,1,0.741174210442437,red,1,NaN,786.654331158049,854.650531362416,NaN,NaN,786.654331158049,854.650531362416,1038.06300875679,691.383827134052,960.476699717708,401.827779828472,661.117046071168,386.139005173917,553.688914296288,665.998856501143,0,0,4,0,0,0,0,NaN,horizontal,vertical,vertical,vertical,horizontal,none
1c,24,100167,3,15,143,25,F,NA,variable,homogeneous,6,present,0.584665060043335,1,horizontal,horizontal,1,0.717645175368698,green,3,4,1046.31108570371,534.001143498857,865.998856501143,353.688914296288,734.001143498857,846.311085703712,980.31222920257,780.31222920257,1046.31108570371,534.001143498857,865.998856501143,353.688914296288,619.68777079743,419.68777079743,553.688914296288,665.998856501143,0,0,4,0,0,0,vertical,horizontal,horizontal,horizontal,vertical,vertical
1c,24,100167,3,16,144,25,F,NA,variable,homogeneous,5,absent,0.743842840194702,1,vertical,vertical,1,0.964700043642962,red,5,NaN,599.057257830286,756.993676208043,NaN,NaN,887.215136548046,839.621618300407,1054.84466088987,591.100628340862,870.287525733335,354.878267535729,588.595418998464,457.40580961496,599.057257830286,756.993676208043,0,0,0,0,0,0,4,NaN,horizontal,horizontal,horizontal,vertical,vertical,none
1c,24,100167,3,17,145,25,F,NA,variable,homogeneous,5,absent,0.642990112304688,1,horizontal,horizontal,1,1.01175811379044,green,1,NaN,708.616172865948,838.063008756786,NaN,NaN,708.616172865948,838.063008756786,998.172220171528,760.476699717708,1013.86099482608,461.117046071168,734.001143498857,353.688914296288,545.349468637584,586.654331158049,0,0,4,0,0,0,0,NaN,horizontal,vertical,vertical,vertical,horizontal,none
1c,24,100167,3,18,146,25,F,NA,variable,homogeneous,4,absent,0.532274007797241,1,vertical,vertical,1,0.6,green,2,NaN,1018.57766167904,731.334709102064,NaN,NaN,668.665290897936,818.577661679039,1018.57766167904,731.334709102064,931.334709102064,381.422338320961,581.422338320961,468.665290897936,0,0,0,0,0,4,0,0,NaN,NaN,vertical,vertical,vertical,vertical,none,none
1c,24,100167,3,19,147,25,F,NA,variable,homogeneous,6,absent,0.522328853607178,1,horizontal,horizontal,1,0.764703245516177,green,3,NaN,1000.94274216971,443.006323791957,NaN,NaN,835.489140744817,852.518357529101,1036.43188291453,695.524681321058,1000.94274216971,443.006323791957,764.510859255183,347.4816424709,563.568117085469,504.475318678942,599.057257830286,756.993676208043,0,0,4,0,0,0,vertical,horizontal,horizontal,vertical,vertical,horizontal
1c,24,100167,3,20,148,25,F,NA,variable,homogeneous,3,present,0.802924871444702,1,vertical,vertical,1,0.694116140294958,red,3,2,558.892763222174,683.019879386575,848.656293821019,349.685068220846,992.450942956807,767.295052392579,848.656293821019,349.685068220846,558.892763222174,683.019879386575,0,0,0,0,0,0,0,0,4,NaN,NaN,NaN,horizontal,vertical,vertical,none,none,none
1c,24,100167,3,21,149,25,F,NA,variable,homogeneous,3,present,0.575653076171875,1,horizontal,horizontal,1,0.823525833200525,green,1,3,817.787900804752,854.378832816255,570.807518193712,488.215357568785,817.787900804752,854.378832816255,1011.40458100154,457.40580961496,570.807518193712,488.215357568785,0,0,0,0,0,0,4,0,0,NaN,NaN,NaN,horizontal,horizontal,vertical,none,none,none
1c,24,100167,3,22,150,25,F,NA,variable,homogeneous,3,absent,0.516265869140625,1,vertical,vertical,1,0.847054868274265,green,3,NaN,576.971974679454,723.626453162816,NaN,NaN,1018.57766167904,731.334709102064,804.450363641507,345.03883773512,576.971974679454,723.626453162816,0,0,0,0,0,0,0,0,4,NaN,NaN,NaN,horizontal,horizontal,vertical,none,none,none
1c,24,100167,3,23,151,25,F,NA,variable,homogeneous,6,absent,0.392172813415527,1,horizontal,horizontal,1,0.858819385811135,green,2,NaN,980.31222920257,780.31222920257,NaN,NaN,734.001143498857,846.311085703712,980.31222920257,780.31222920257,1046.31108570371,534.001143498857,865.998856501143,353.688914296288,619.68777079743,419.68777079743,553.688914296288,665.998856501143,0,4,0,0,0,0,vertical,horizontal,vertical,vertical,vertical,vertical
1c,24,100167,3,24,152,25,F,NA,variable,homogeneous,4,absent,0.466650009155273,1,vertical,vertical,1,0.917641973495483,red,3,NaN,657.405809614959,388.595418998464,NaN,NaN,942.594190385041,811.404581001536,1011.40458100154,457.40580961496,657.405809614959,388.595418998464,588.595418998464,742.594190385041,0,0,0,0,0,0,4,0,NaN,NaN,horizontal,horizontal,vertical,vertical,none,none
1c,24,100167,3,25,153,25,F,NA,variable,homogeneous,6,present,0.621643781661987,1,horizontal,horizontal,1,0.670587105221218,red,1,3,729.712474266665,845.121732464271,1047.42541020038,538.309916622085,729.712474266665,845.121732464271,977.137884467044,783.431649086356,1047.42541020038,538.309916622085,870.287525733335,354.878267535729,622.862115532956,416.568350913644,552.574589799621,661.690083377915,4,0,0,0,0,0,horizontal,vertical,horizontal,vertical,horizontal,vertical
1c,24,100167,3,26,154,25,F,NA,variable,homogeneous,4,absent,0.605751991271973,1,horizontal,horizontal,1,0.799996798126786,red,2,NaN,1054.96116226488,604.450363641507,NaN,NaN,795.549636358493,854.96116226488,1054.96116226488,604.450363641507,804.450363641507,345.03883773512,545.03883773512,595.549636358493,0,0,0,0,0,4,0,0,NaN,NaN,horizontal,horizontal,vertical,vertical,none,none
1c,24,100167,3,27,155,25,F,NA,variable,homogeneous,4,present,0.588805913925171,1,vertical,vertical,1,0.941171008569223,green,1,4,967.295052392579,792.450942956807,607.549057043193,767.295052392579,967.295052392579,792.450942956807,992.450942956807,432.704947607421,632.704947607421,407.549057043193,607.549057043193,767.295052392579,0,0,0,0,4,0,0,0,NaN,NaN,vertical,horizontal,horizontal,vertical,none,none
1c,24,100167,3,28,156,25,F,NA,variable,homogeneous,4,absent,0.410111904144287,1,horizontal,horizontal,1,0.858819385811135,red,4,NaN,548.874022981887,555.719714694933,NaN,NaN,755.719714694933,851.125977018113,1051.12597701811,644.280285305067,844.280285305067,348.874022981887,548.874022981887,555.719714694933,0,0,0,0,0,0,0,4,NaN,NaN,horizontal,horizontal,horizontal,horizontal,none,none
1c,24,100167,3,29,157,25,F,NA,variable,homogeneous,5,present,0.494858980178833,0,horizontal,vertical,1,0.623529035073739,red,5,1,545.03883773512,604.450363641507,725.445215295702,843.857712770574,725.445215295702,843.857712770574,1008.88377129369,746.261991269517,1003.65205506206,446.537169096228,716.980120613425,358.892763222174,545.03883773512,604.450363641507,0,0,0,0,0,0,4,NaN,vertical,vertical,horizontal,vertical,horizontal,none
1c,24,100167,3,30,158,25,F,NA,variable,homogeneous,4,absent,0.671042919158936,1,horizontal,horizontal,1,1.09410973654853,green,3,NaN,791.100628340862,345.155339110131,NaN,NaN,808.899371659138,854.844660889869,1054.84466088987,591.100628340862,791.100628340862,345.155339110131,545.155339110131,608.899371659138,0,0,0,0,0,0,4,0,NaN,NaN,vertical,horizontal,horizontal,vertical,none,none
1c,24,100167,3,31,159,25,F,NA,variable,homogeneous,5,present,0.820466041564941,1,horizontal,horizontal,1,0.976464561179832,red,3,1,949.885239334581,393.700666434388,800,855,800,855,1042.51941165526,678.799333565612,949.885239334581,393.700666434388,650.114760665419,393.700666434388,557.480588344736,678.799333565612,0,0,0,0,4,0,0,NaN,vertical,vertical,horizontal,vertical,vertical,none
1c,24,100167,3,32,160,25,F,NA,variable,homogeneous,3,present,0.539701223373413,1,horizontal,horizontal,1,0.752938727979307,red,2,1,1051.86052685176,639.890788585259,639.523300282292,798.172220171528,639.523300282292,798.172220171528,1051.86052685176,639.890788585259,708.616172865948,361.936991243214,0,0,0,0,0,0,0,4,0,NaN,NaN,NaN,vertical,horizontal,vertical,none,none,none
1c,24,100167,3,33,161,25,F,NA,variable,homogeneous,3,absent,0.44806694984436,1,horizontal,horizontal,1,0.670587105221218,green,3,NaN,554.878267535729,529.712474266665,NaN,NaN,861.690083377915,847.425410200379,983.431649086356,422.862115532956,554.878267535729,529.712474266665,0,0,0,0,0,0,0,0,4,NaN,NaN,NaN,horizontal,horizontal,horizontal,none,none,none
1c,24,100167,3,34,162,25,F,NA,variable,homogeneous,5,present,0.426981925964355,1,vertical,vertical,1,1.08234521901166,red,3,1,1031.10848569435,492.232343256122,676.373546837184,823.028025320546,676.373546837184,823.028025320546,973.909581815937,786.495193912888,1031.10848569435,492.232343256122,768.923317431687,346.900731331463,549.685068220846,551.343706178981,0,0,0,0,4,0,0,NaN,horizontal,horizontal,vertical,horizontal,horizontal,none
1c,24,100167,3,35,163,25,F,NA,variable,homogeneous,5,absent,0.519942045211792,1,horizontal,horizontal,1,0.623529035073739,green,1,NaN,704.475318678942,836.431882914531,NaN,NaN,704.475318678942,836.431882914531,995.341332995339,763.910840470068,1016.25226451989,464.870587620533,738.309916622085,352.574589799621,545.621167183745,582.212099195248,0,0,4,0,0,0,0,NaN,horizontal,horizontal,horizontal,horizontal,vertical,none
1c,24,100167,3,36,164,25,F,NA,variable,homogeneous,3,absent,0.482334852218628,1,vertical,vertical,1,0.964700043642962,red,3,NaN,599.057257830286,443.006323791957,NaN,NaN,764.510859255183,852.518357529101,1036.43188291453,504.475318678942,599.057257830286,443.006323791957,0,0,0,0,0,0,0,0,4,NaN,NaN,NaN,horizontal,horizontal,vertical,none,none,none
1c,24,100167,3,37,165,25,F,NA,variable,homogeneous,3,present,0.512210845947266,1,horizontal,horizontal,1,0.61176451753687,red,1,2,680.284751489598,825.151636179026,1054.84466088987,591.100628340862,680.284751489598,825.151636179026,1054.84466088987,591.100628340862,664.870587620533,383.747735480111,0,0,0,0,0,0,4,0,0,NaN,NaN,NaN,horizontal,horizontal,horizontal,none,none,none
1c,24,100167,3,38,166,25,F,NA,variable,homogeneous,3,absent,0.662822008132935,1,vertical,vertical,1,0.61176451753687,green,1,NaN,593.700666434388,749.885239334581,NaN,NaN,593.700666434388,749.885239334581,1032.95409169886,703.717843984329,773.345241866748,346.39691668109,0,0,0,0,0,0,4,0,0,NaN,NaN,NaN,vertical,horizontal,vertical,none,none,none
1c,24,100167,3,39,167,25,F,NA,variable,homogeneous,6,present,0.556004047393799,1,vertical,vertical,1,0.988229078716702,red,1,4,800,855,800,345,800,855,1020.83647796503,727.5,1020.83647796503,472.5,800,345,579.163522034968,472.5,579.163522034968,727.5,4,0,0,0,0,0,vertical,horizontal,vertical,vertical,horizontal,horizontal
1c,24,100167,3,40,168,25,F,NA,variable,homogeneous,3,present,0.402250051498413,1,vertical,vertical,1,0.741174210442437,green,2,1,1008.88377129369,453.738008730483,822.224714400653,854.029648013395,822.224714400653,854.029648013395,1008.88377129369,453.738008730483,568.891514305654,492.232343256122,0,0,0,0,0,0,0,4,0,NaN,NaN,NaN,horizontal,vertical,vertical,none,none,none
1c,24,100167,3,41,169,25,F,NA,variable,homogeneous,6,absent,0.443194150924683,1,vertical,vertical,1,0.635293552610609,red,4,NaN,907.767656743878,368.891514305654,NaN,NaN,692.232343256122,831.108485694346,946.261991269517,808.883771293693,1054.0296480134,577.775285599347,907.767656743878,368.891514305654,653.738008730483,391.116228706307,545.970351986605,622.224714400653,0,0,0,4,0,0,horizontal,vertical,vertical,vertical,horizontal,vertical
1c,24,100167,3,42,170,25,F,NA,variable,homogeneous,5,present,0.502007007598877,0,vertical,horizontal,1,0.694116140294958,red,5,3,557.480588344736,521.200666434388,1042.51941165526,521.200666434388,650.114760665419,806.299333565612,949.885239334581,806.299333565612,1042.51941165526,521.200666434388,800,345,557.480588344736,521.200666434388,0,0,0,0,0,0,4,NaN,horizontal,vertical,horizontal,horizontal,vertical,none
1c,24,100167,3,43,171,25,F,NA,variable,homogeneous,6,absent,0.469630002975464,1,vertical,vertical,1,0.870583903348004,green,2,NaN,1054.0296480134,622.224714400653,NaN,NaN,907.767656743878,831.108485694346,1054.0296480134,622.224714400653,946.261991269517,391.116228706307,692.232343256122,368.891514305654,545.970351986605,577.775285599347,653.738008730483,808.883771293693,0,4,0,0,0,0,vertical,vertical,vertical,vertical,horizontal,horizontal
1c,24,100167,3,44,172,25,F,NA,variable,homogeneous,5,present,1.05518507957458,1,vertical,vertical,1,0.61176451753687,green,2,5,963.910840470068,795.341332995339,552.574589799621,538.309916622085,664.870587620533,816.252264519889,963.910840470068,795.341332995339,1036.43188291453,504.475318678942,782.212099195248,345.621167183745,552.574589799621,538.309916622085,0,0,0,4,0,0,0,NaN,vertical,vertical,vertical,horizontal,horizontal,none
1c,24,100167,3,45,173,25,F,NA,variable,homogeneous,5,absent,0.612718105316162,1,vertical,vertical,1,0.6,red,1,NaN,857.362518857686,848.464366520235,NaN,NaN,857.362518857686,848.464366520235,1054.0296480134,622.224714400653,899.636437764765,365.271262369628,607.549057043193,432.704947607421,581.422338320961,731.334709102064,0,0,4,0,0,0,0,NaN,vertical,horizontal,horizontal,horizontal,horizontal,none
1c,24,100167,3,46,174,25,F,NA,variable,homogeneous,5,absent,0.397199869155884,1,horizontal,horizontal,1,0.999993596253572,red,3,NaN,953.462830903772,396.34794493794,NaN,NaN,795.549636358493,854.96116226488,1041.10723677783,683.019879386575,953.462830903772,396.34794493794,653.738008730483,391.116228706307,556.142287229426,674.554784704298,0,0,0,0,4,0,0,NaN,horizontal,horizontal,horizontal,vertical,horizontal,none
1c,24,100167,3,47,175,25,F,NA,variable,homogeneous,4,present,0.513437032699585,1,horizontal,horizontal,1,0.811761315663656,red,3,2,688.215357568785,370.807518193712,1029.19248180629,488.215357568785,911.784642431215,829.192481806288,1029.19248180629,488.215357568785,688.215357568785,370.807518193712,570.807518193712,711.784642431215,0,0,0,0,0,0,4,0,NaN,NaN,vertical,vertical,horizontal,vertical,none,none
1c,24,100167,3,48,176,25,F,NA,variable,homogeneous,6,present,0.514465808868408,1,horizontal,horizontal,1,0.729409692905567,red,6,3,546.39691668109,626.654758133252,1053.60308331891,573.345241866748,696.282156015671,832.954091698863,949.885239334581,806.299333565612,1053.60308331891,573.345241866748,903.717843984329,367.045908301137,650.114760665419,393.700666434388,546.39691668109,626.654758133252,0,0,0,0,0,4,vertical,vertical,vertical,horizontal,vertical,horizontal
1c,24,100167,3,49,177,25,F,NA,variable,homogeneous,6,present,0.554167985916138,1,vertical,vertical,1,0.658822587684349,red,4,5,734.001143498857,353.688914296288,553.688914296288,534.001143498857,865.998856501143,846.311085703712,1046.31108570371,665.998856501143,980.31222920257,419.68777079743,734.001143498857,353.688914296288,553.688914296288,534.001143498857,619.68777079743,780.31222920257,0,0,0,4,0,0,vertical,horizontal,vertical,vertical,horizontal,horizontal
1c,24,100167,3,50,178,25,F,NA,variable,homogeneous,4,absent,0.594954013824463,1,horizontal,horizontal,1,0.882348420884874,green,3,NaN,657.405809614959,388.595418998464,NaN,NaN,942.594190385041,811.404581001536,1011.40458100154,457.40580961496,657.405809614959,388.595418998464,588.595418998464,742.594190385041,0,0,0,0,0,0,4,0,NaN,NaN,vertical,horizontal,horizontal,vertical,none,none
1c,24,100167,3,51,179,25,F,NA,variable,homogeneous,5,present,0.543723821640015,1,horizontal,horizontal,1,1.03528714886418,green,3,4,942.594190385041,388.595418998464,643.006323791957,399.057257830286,808.899371659138,854.844660889869,1045.12173246427,670.287525733335,942.594190385041,388.595418998464,643.006323791957,399.057257830286,560.378381699593,687.215136548046,0,0,0,0,4,0,0,NaN,vertical,vertical,horizontal,horizontal,horizontal,none
1c,24,100167,3,52,180,25,F,NA,variable,homogeneous,5,present,0.818784952163696,0,horizontal,vertical,1,1.01175811379044,green,3,1,1029.19248180629,488.215357568785,680.284751489598,825.151636179026,680.284751489598,825.151636179026,977.137884467044,783.431649086356,1029.19248180629,488.215357568785,764.510859255183,347.4816424709,548.874022981887,555.719714694933,0,0,0,0,4,0,0,NaN,vertical,horizontal,horizontal,vertical,vertical,none
1c,24,100167,3,53,181,25,F,NA,variable,homogeneous,3,absent,0.496338844299316,1,horizontal,horizontal,1,1.03528714886418,red,2,NaN,1052.5183575291,564.510859255183,NaN,NaN,704.475318678942,836.431882914531,1052.5183575291,564.510859255183,643.006323791957,399.057257830286,0,0,0,0,0,0,0,4,0,NaN,NaN,NaN,vertical,horizontal,horizontal,none,none,none
1c,24,100167,3,54,182,25,F,NA,variable,homogeneous,3,absent,0.555190086364746,1,vertical,vertical,1,0.635293552610609,red,3,NaN,664.870587620533,383.747735480111,NaN,NaN,680.284751489598,825.151636179026,1054.84466088987,591.100628340862,664.870587620533,383.747735480111,0,0,0,0,0,0,0,0,4,NaN,NaN,NaN,vertical,horizontal,vertical,none,none,none
1c,24,100167,3,55,183,25,F,NA,variable,homogeneous,3,present,0.460069894790649,1,vertical,vertical,1,0.682351622758088,green,2,3,956.993676208043,399.057257830286,547.481642470899,564.510859255183,895.524681321058,836.431882914531,956.993676208043,399.057257830286,547.481642470899,564.510859255183,0,0,0,0,0,0,0,4,0,NaN,NaN,NaN,vertical,vertical,vertical,none,none,none
1c,24,100167,3,56,184,25,F,NA,variable,homogeneous,6,absent,0.433349132537842,1,horizontal,horizontal,1,0.788232280589916,red,5,NaN,556.142287229426,525.445215295702,NaN,NaN,857.362518857686,848.464366520235,1043.85771277057,674.554784704298,986.495193912888,426.090418184063,742.637481142314,351.535633479765,556.142287229426,525.445215295702,613.504806087112,773.909581815937,0,0,0,0,4,0,vertical,vertical,horizontal,horizontal,horizontal,vertical
1c,24,100167,3,57,185,25,F,NA,variable,homogeneous,6,absent,0.521293878555298,1,vertical,vertical,1,0.964700043642962,green,4,NaN,817.787900804752,345.621167183745,NaN,NaN,782.212099195248,854.378832816255,1011.40458100154,742.594190385041,1029.19248180629,488.215357568785,817.787900804752,345.621167183745,588.595418998464,457.40580961496,570.807518193712,711.784642431215,0,0,0,4,0,0,horizontal,vertical,horizontal,vertical,horizontal,horizontal
1c,24,100167,3,58,186,25,F,NA,variable,homogeneous,6,present,0.821099996566772,1,vertical,vertical,1,0.658822587684349,green,5,4,553.688914296288,534.001143498857,734.001143498857,353.688914296288,865.998856501143,846.311085703712,1046.31108570371,665.998856501143,980.31222920257,419.68777079743,734.001143498857,353.688914296288,553.688914296288,534.001143498857,619.68777079743,780.31222920257,0,0,0,0,4,0,vertical,vertical,horizontal,horizontal,vertical,horizontal
1c,24,100167,3,59,187,25,F,NA,variable,homogeneous,4,present,0.475209951400757,1,vertical,vertical,1,0.882348420884874,red,3,4,822.224714400653,345.970351986605,545.970351986605,577.775285599347,777.775285599347,854.029648013395,1054.0296480134,622.224714400653,822.224714400653,345.970351986605,545.970351986605,577.775285599347,0,0,0,0,0,0,4,0,NaN,NaN,vertical,horizontal,vertical,vertical,none,none
1c,24,100167,3,60,188,25,F,NA,variable,homogeneous,6,present,0.783123970031738,1,vertical,vertical,1,0.905877455958614,green,1,6,721.200666434388,842.519411655264,550.57236181288,653.017481158529,721.200666434388,842.519411655264,970.628304621509,789.501930496736,1049.42763818712,546.982518841471,878.799333565612,357.480588344736,629.371695378491,410.498069503264,550.57236181288,653.017481158529,4,0,0,0,0,0,vertical,vertical,vertical,horizontal,horizontal,vertical
1c,24,100167,3,61,189,25,F,NA,variable,homogeneous,6,absent,0.728118896484375,1,horizontal,horizontal,1,0.658822587684349,red,2,NaN,986.495193912888,773.909581815937,NaN,NaN,742.637481142314,848.464366520235,986.495193912888,773.909581815937,1043.85771277057,525.445215295702,857.362518857686,351.535633479765,613.504806087112,426.090418184063,556.142287229426,674.554784704298,0,4,0,0,0,0,vertical,horizontal,vertical,horizontal,vertical,horizontal
1c,24,100167,3,62,190,25,F,NA,variable,homogeneous,5,absent,0.581298828125,1,vertical,vertical,1,0.717645175368698,green,5,NaN,632.704947607421,792.450942956807,NaN,NaN,931.334709102064,818.577661679039,1048.46436652023,542.637481142314,822.224714400653,345.970351986605,565.271262369628,500.363562235235,632.704947607421,792.450942956807,0,0,0,0,0,0,4,NaN,horizontal,horizontal,vertical,horizontal,vertical,none
1c,24,100167,3,63,191,25,F,NA,variable,homogeneous,4,present,0.554469108581543,1,vertical,vertical,1,1.07058070147479,green,1,4,721.200666434388,842.519411655264,557.480588344736,521.200666434388,721.200666434388,842.519411655264,1042.51941165526,678.799333565612,878.799333565612,357.480588344736,557.480588344736,521.200666434388,0,0,0,0,4,0,0,0,NaN,NaN,vertical,horizontal,horizontal,vertical,none,none
1c,24,100167,3,64,192,25,F,NA,variable,homogeneous,3,present,0.490499973297119,0,horizontal,vertical,1,1.03528714886418,green,3,2,546.39691668109,626.654758133252,903.717843984329,367.045908301137,949.885239334581,806.299333565612,903.717843984329,367.045908301137,546.39691668109,626.654758133252,0,0,0,0,0,0,0,0,4,NaN,NaN,NaN,vertical,vertical,horizontal,none,none,none
1c,24,100167,4,1,193,25,F,NA,variable,homogeneous,5,absent,0.473650932312012,1,horizontal,horizontal,1,1.02352263132731,green,5,NaN,545.349468637584,613.345668841951,NaN,NaN,734.001143498857,846.311085703712,1013.86099482608,738.882953928832,998.172220171528,439.523300282291,708.616172865948,361.936991243214,545.349468637584,613.345668841951,0,0,0,0,0,0,4,NaN,vertical,horizontal,horizontal,vertical,horizontal,none
1c,24,100167,4,2,194,25,F,NA,variable,homogeneous,4,absent,0.468357086181641,1,horizontal,horizontal,1,1.05881618393792,green,2,NaN,1023.02802532055,723.626453162816,NaN,NaN,676.373546837184,823.028025320546,1023.02802532055,723.626453162816,923.626453162816,376.971974679454,576.971974679454,476.373546837184,0,0,0,0,0,4,0,0,NaN,NaN,horizontal,horizontal,horizontal,vertical,none,none
1c,24,100167,4,3,195,25,F,NA,variable,homogeneous,6,present,0.510890007019043,1,vertical,vertical,1,0.847054868274265,green,2,3,1018.57766167904,731.334709102064,1023.02802532055,476.373546837184,795.549636358493,854.96116226488,1018.57766167904,731.334709102064,1023.02802532055,476.373546837184,804.450363641507,345.03883773512,581.422338320961,468.665290897936,576.971974679454,723.626453162816,0,4,0,0,0,0,vertical,vertical,horizontal,vertical,horizontal,horizontal
1c,24,100167,4,4,196,25,F,NA,variable,homogeneous,3,present,0.593326091766357,1,horizontal,horizontal,1,0.999993596253572,green,2,3,995.341332995339,436.089159529932,560.378381699593,512.784863451954,844.280285305067,851.125977018113,995.341332995339,436.089159529932,560.378381699593,512.784863451954,0,0,0,0,0,0,0,4,0,NaN,NaN,NaN,vertical,horizontal,horizontal,none,none,none
1c,24,100167,4,5,197,25,F,NA,variable,homogeneous,4,present,0.717972040176392,1,horizontal,horizontal,1,0.635293552610609,red,1,4,664.870587620533,816.252264519889,583.747735480111,464.870587620533,664.870587620533,816.252264519889,1016.25226451989,735.129412379467,935.129412379467,383.747735480111,583.747735480111,464.870587620533,0,0,0,0,4,0,0,0,NaN,NaN,horizontal,vertical,vertical,vertical,none,none
1c,24,100167,4,6,198,25,F,NA,variable,homogeneous,5,present,0.536871910095215,1,vertical,vertical,1,0.811761315663656,red,5,1,626.090418184063,786.495193912888,923.626453162816,823.028025320546,923.626453162816,823.028025320546,1050.31493177915,551.343706178981,831.076682568313,346.900731331463,568.891514305654,492.232343256122,626.090418184063,786.495193912888,0,0,0,0,0,0,4,NaN,vertical,horizontal,horizontal,horizontal,vertical,none
1c,24,100167,4,7,199,25,F,NA,variable,homogeneous,5,absent,0.674814939498901,1,vertical,vertical,1,0.952935526106093,red,1,NaN,768.923317431687,853.099268668537,NaN,NaN,768.923317431687,853.099268668537,1031.10848569435,707.767656743878,973.909581815937,413.504806087112,676.373546837184,376.971974679454,549.685068220846,648.656293821019,0,0,4,0,0,0,0,NaN,vertical,vertical,vertical,vertical,horizontal,none
1c,24,100167,4,8,200,25,F,NA,variable,homogeneous,5,present,0.460324048995972,1,horizontal,horizontal,1,0.988229078716702,green,2,4,967.295052392579,792.450942956807,777.775285599347,345.970351986605,668.665290897936,818.577661679039,967.295052392579,792.450942956807,1034.72873763037,500.363562235235,777.775285599347,345.970351986605,551.535633479765,542.637481142314,0,0,0,4,0,0,0,NaN,vertical,horizontal,vertical,horizontal,vertical,none
1c,24,100167,4,9,201,25,F,NA,variable,homogeneous,5,present,0.632009029388428,1,horizontal,horizontal,1,0.717645175368698,red,1,5,764.510859255183,852.518357529101,548.874022981887,644.280285305067,764.510859255183,852.518357529101,1029.19248180629,711.784642431215,977.137884467044,416.568350913644,680.284751489598,374.848363820974,548.874022981887,644.280285305067,0,0,4,0,0,0,0,NaN,horizontal,horizontal,horizontal,horizontal,vertical,none
1c,24,100167,4,10,202,25,F,NA,variable,homogeneous,3,present,0.500799894332886,1,horizontal,horizontal,1,0.999993596253572,red,2,3,1048.46436652023,657.362518857686,725.445215295702,356.142287229426,626.090418184063,786.495193912888,1048.46436652023,657.362518857686,725.445215295702,356.142287229426,0,0,0,0,0,0,0,4,0,NaN,NaN,NaN,horizontal,horizontal,horizontal,none,none,none
1c,24,100167,4,11,203,25,F,NA,variable,homogeneous,3,absent,0.498017072677612,1,vertical,vertical,1,0.952935526106093,green,3,NaN,548.874022981887,644.280285305067,NaN,NaN,963.910840470068,795.341332995339,887.215136548046,360.378381699593,548.874022981887,644.280285305067,0,0,0,0,0,0,0,0,4,NaN,NaN,NaN,horizontal,horizontal,vertical,none,none,none
1c,24,100167,4,12,204,25,F,NA,variable,homogeneous,6,absent,0.775338888168335,1,vertical,vertical,1,0.752938727979307,red,5,NaN,629.371695378491,410.498069503264,NaN,NaN,721.200666434388,842.519411655264,970.628304621509,789.501930496736,1049.42763818712,546.982518841471,878.799333565612,357.480588344736,629.371695378491,410.498069503264,550.57236181288,653.017481158529,0,0,0,0,4,0,vertical,vertical,horizontal,horizontal,vertical,horizontal
1c,24,100167,4,13,205,25,F,NA,variable,homogeneous,5,absent,0.51550817489624,1,horizontal,horizontal,1,0.623529035073739,green,4,NaN,607.549057043193,432.704947607421,NaN,NaN,857.362518857686,848.464366520235,1054.0296480134,622.224714400653,899.636437764765,365.271262369628,607.549057043193,432.704947607421,581.422338320961,731.334709102064,0,0,0,0,0,4,0,NaN,vertical,vertical,horizontal,horizontal,vertical,none
1c,24,100167,4,14,206,25,F,NA,variable,homogeneous,6,present,0.503728866577148,1,vertical,vertical,1,0.694116140294958,red,3,2,983.431649086356,422.862115532956,1045.12173246427,670.287525733335,861.690083377915,847.425410200379,1045.12173246427,670.287525733335,983.431649086356,422.862115532956,738.309916622085,352.574589799621,554.878267535729,529.712474266665,616.568350913644,777.137884467044,0,0,4,0,0,0,horizontal,horizontal,vertical,vertical,vertical,vertical
1c,24,100167,4,15,207,25,F,NA,variable,homogeneous,4,present,0.614389896392822,1,horizontal,horizontal,1,0.823525833200525,green,2,4,1016.25226451989,464.870587620533,583.747735480111,735.129412379467,935.129412379467,816.252264519889,1016.25226451989,464.870587620533,664.870587620533,383.747735480111,583.747735480111,735.129412379467,0,0,0,0,0,4,0,0,NaN,NaN,horizontal,horizontal,horizontal,vertical,none,none
1c,24,100167,4,16,208,25,F,NA,variable,homogeneous,4,present,0.41482400894165,1,vertical,vertical,1,0.999993596253572,green,3,4,725.445215295702,356.142287229426,556.142287229426,674.554784704298,874.554784704298,843.857712770574,1043.85771277057,525.445215295702,725.445215295702,356.142287229426,556.142287229426,674.554784704298,0,0,0,0,0,0,4,0,NaN,NaN,horizontal,vertical,vertical,vertical,none,none
1c,24,100167,4,17,209,25,F,NA,variable,homogeneous,3,absent,0.444025039672852,1,horizontal,horizontal,1,0.635293552610609,red,1,NaN,977.137884467044,783.431649086356,NaN,NaN,977.137884467044,783.431649086356,870.287525733335,354.878267535729,552.574589799621,661.690083377915,0,0,0,0,0,0,4,0,0,NaN,NaN,NaN,horizontal,vertical,horizontal,none,none,none
1c,24,100167,4,18,210,25,F,NA,variable,homogeneous,6,absent,0.56037712097168,1,vertical,vertical,1,0.764703245516177,green,1,NaN,692.232343256122,831.108485694346,NaN,NaN,692.232343256122,831.108485694346,946.261991269517,808.883771293693,1054.0296480134,577.775285599347,907.767656743878,368.891514305654,653.738008730483,391.116228706307,545.970351986605,622.224714400653,4,0,0,0,0,0,vertical,horizontal,horizontal,vertical,vertical,vertical
1c,24,100167,4,19,211,25,F,NA,variable,homogeneous,5,present,0.468173980712891,1,horizontal,horizontal,1,0.823525833200525,red,2,5,1048.46436652023,542.637481142314,632.704947607421,792.450942956807,931.334709102064,818.577661679039,1048.46436652023,542.637481142314,822.224714400653,345.970351986605,565.271262369628,500.363562235235,632.704947607421,792.450942956807,0,0,0,4,0,0,0,NaN,horizontal,horizontal,horizontal,vertical,horizontal,none
1c,24,100167,4,20,212,25,F,NA,variable,homogeneous,4,absent,0.826292037963867,1,horizontal,horizontal,1,0.835290350737395,red,3,NaN,919.715248510402,374.848363820974,NaN,NaN,680.284751489598,825.151636179026,1025.15163617903,719.715248510402,919.715248510402,374.848363820974,574.848363820974,480.284751489598,0,0,0,0,0,0,4,0,NaN,NaN,horizontal,horizontal,horizontal,vertical,none,none
1c,24,100167,4,21,213,25,F,NA,variable,homogeneous,4,absent,0.491782903671265,1,vertical,vertical,1,1.03528714886418,red,4,NaN,556.142287229426,525.445215295702,NaN,NaN,725.445215295702,843.857712770574,1043.85771277057,674.554784704298,874.554784704298,356.142287229426,556.142287229426,525.445215295702,0,0,0,0,0,0,0,4,NaN,NaN,vertical,vertical,vertical,vertical,none,none
1c,24,100167,4,22,214,25,F,NA,variable,homogeneous,4,absent,0.553513050079346,0,horizontal,vertical,1,1.01175811379044,red,3,NaN,692.232343256122,368.891514305654,NaN,NaN,907.767656743878,831.108485694346,1031.10848569435,492.232343256122,692.232343256122,368.891514305654,568.891514305654,707.767656743878,0,0,0,0,0,0,4,0,NaN,NaN,horizontal,vertical,horizontal,vertical,none,none
1c,24,100167,4,23,215,25,F,NA,variable,homogeneous,3,present,0.538138151168823,1,vertical,vertical,1,0.858819385811135,green,1,3,887.215136548046,839.621618300407,548.874022981887,555.719714694933,887.215136548046,839.621618300407,963.910840470068,404.658667004661,548.874022981887,555.719714694933,0,0,0,0,0,0,4,0,0,NaN,NaN,NaN,vertical,vertical,horizontal,none,none,none
1c,24,100167,4,24,216,25,F,NA,variable,homogeneous,6,present,0.593905210494995,1,vertical,vertical,1,0.635293552610609,green,1,4,755.719714694933,851.125977018113,844.280285305067,348.874022981887,755.719714694933,851.125977018113,995.341332995339,763.910840470068,1039.62161830041,512.784863451954,844.280285305067,348.874022981887,604.658667004661,436.089159529932,560.378381699593,687.215136548046,4,0,0,0,0,0,vertical,horizontal,vertical,horizontal,horizontal,horizontal
1c,24,100167,4,25,217,25,F,NA,variable,homogeneous,6,present,0.337999105453491,1,horizontal,horizontal,1,0.999993596253572,green,3,2,938.882953928832,386.139005173917,1054.65053136242,613.345668841951,915.767577433584,827.206663668034,1054.65053136242,613.345668841951,938.882953928832,386.139005173917,684.232422566416,372.793336331966,545.349468637584,586.654331158049,661.117046071168,813.860994826083,0,0,4,0,0,0,horizontal,vertical,horizontal,vertical,vertical,horizontal
1c,24,100167,4,26,218,25,F,NA,variable,homogeneous,5,absent,0.482984066009521,1,vertical,vertical,1,0.905877455958614,red,5,NaN,556.142287229426,525.445215295702,NaN,NaN,653.738008730483,808.883771293693,953.462830903772,803.65205506206,1041.10723677783,516.980120613425,795.549636358493,345.03883773512,556.142287229426,525.445215295702,0,0,0,0,0,0,4,NaN,vertical,vertical,vertical,vertical,vertical,none
1c,24,100167,4,27,219,25,F,NA,variable,homogeneous,3,present,0.506906986236572,1,vertical,vertical,1,0.905877455958614,green,1,3,826.654758133252,853.60308331891,567.045908301137,496.282156015671,826.654758133252,853.60308331891,1006.29933356561,450.114760665419,567.045908301137,496.282156015671,0,0,0,0,0,0,4,0,0,NaN,NaN,NaN,vertical,horizontal,vertical,none,none,none
1c,24,100167,4,28,220,25,F,NA,variable,homogeneous,3,present,0.439678907394409,1,vertical,vertical,1,0.717645175368698,red,1,2,813.345668841951,854.650531362416,1013.86099482608,461.117046071168,813.345668841951,854.650531362416,1013.86099482608,461.117046071168,572.793336331966,484.232422566416,0,0,0,0,0,0,4,0,0,NaN,NaN,NaN,vertical,horizontal,vertical,none,none,none
1c,24,100167,4,29,221,25,F,NA,variable,homogeneous,6,absent,0.496137142181396,1,vertical,vertical,1,0.776467763053046,red,4,NaN,835.489140744817,347.4816424709,NaN,NaN,764.510859255183,852.518357529101,1000.94274216971,756.993676208043,1036.43188291453,504.475318678942,835.489140744817,347.4816424709,599.057257830286,443.006323791957,563.568117085469,695.524681321058,0,0,0,4,0,0,horizontal,horizontal,vertical,vertical,vertical,vertical
1c,24,100167,4,30,222,25,F,NA,variable,homogeneous,6,present,0.404406070709229,0,vertical,horizontal,1,0.705880657831828,red,5,1,661.117046071168,386.139005173917,684.232422566416,827.206663668034,684.232422566416,827.206663668034,938.882953928832,813.860994826083,1054.65053136242,586.654331158049,915.767577433584,372.793336331966,661.117046071168,386.139005173917,545.349468637584,613.345668841951,0,0,0,0,4,0,horizontal,vertical,vertical,horizontal,vertical,vertical
1c,24,100167,4,31,223,25,F,NA,variable,homogeneous,6,absent,0.644979953765869,1,horizontal,horizontal,1,0.61176451753687,green,1,NaN,911.784642431215,829.192481806288,NaN,NaN,911.784642431215,829.192481806288,1054.37883281626,617.787900804752,942.594190385041,388.595418998464,688.215357568785,370.807518193712,545.621167183745,582.212099195248,657.405809614959,811.404581001536,4,0,0,0,0,0,horizontal,vertical,vertical,vertical,horizontal,horizontal
1c,24,100167,4,32,224,25,F,NA,variable,homogeneous,6,absent,0.572099924087524,1,horizontal,horizontal,1,0.705880657831828,red,6,NaN,629.371695378491,789.501930496736,NaN,NaN,878.799333565612,842.519411655264,1049.42763818712,653.017481158529,970.628304621509,410.498069503264,721.200666434388,357.480588344736,550.57236181288,546.982518841471,629.371695378491,789.501930496736,0,0,0,0,0,4,horizontal,horizontal,horizontal,horizontal,horizontal,horizontal
1c,24,100167,4,33,225,25,F,NA,variable,homogeneous,3,absent,0.534955978393555,1,vertical,vertical,1,0.964700043642962,red,1,NaN,970.628304621509,789.501930496736,NaN,NaN,970.628304621509,789.501930496736,878.799333565612,357.480588344736,550.57236181288,653.017481158529,0,0,0,0,0,0,4,0,0,NaN,NaN,NaN,vertical,horizontal,vertical,none,none,none
1c,24,100167,4,34,226,25,F,NA,variable,homogeneous,6,absent,0.526538133621216,1,horizontal,horizontal,1,0.635293552610609,green,6,NaN,613.504806087112,773.909581815937,NaN,NaN,857.362518857686,848.464366520235,1043.85771277057,674.554784704298,986.495193912888,426.090418184063,742.637481142314,351.535633479765,556.142287229426,525.445215295702,613.504806087112,773.909581815937,0,0,0,0,0,4,horizontal,horizontal,vertical,vertical,horizontal,horizontal
1c,24,100167,4,35,227,25,F,NA,variable,homogeneous,4,present,0.763540029525757,1,vertical,vertical,1,0.929406491032353,green,4,1,610.498069503264,770.628304621509,970.628304621509,789.501930496736,970.628304621509,789.501930496736,989.501930496736,429.371695378491,629.371695378491,410.498069503264,610.498069503264,770.628304621509,0,0,0,0,0,0,0,4,NaN,NaN,horizontal,horizontal,vertical,vertical,none,none
1c,24,100167,4,36,228,25,F,NA,variable,homogeneous,5,absent,0.494971990585327,1,horizontal,horizontal,1,0.788232280589916,red,5,NaN,639.523300282292,798.172220171528,NaN,NaN,938.882953928832,813.860994826083,1046.31108570371,534.001143498857,813.345668841951,345.349468637584,561.936991243214,508.616172865948,639.523300282292,798.172220171528,0,0,0,0,0,0,4,NaN,vertical,horizontal,vertical,horizontal,horizontal,none
1c,24,100167,4,37,229,25,F,NA,variable,homogeneous,6,absent,0.879045963287354,1,horizontal,horizontal,1,0.694116140294958,red,5,NaN,549.685068220846,551.343706178981,NaN,NaN,883.019879386575,841.107236777826,1050.31493177915,648.656293821019,967.295052392579,407.549057043193,716.980120613425,358.892763222174,549.685068220846,551.343706178981,632.704947607421,792.450942956807,0,0,0,0,4,0,vertical,vertical,horizontal,horizontal,horizontal,vertical
1c,24,100167,4,38,230,25,F,NA,variable,homogeneous,5,absent,0.46040415763855,1,vertical,vertical,1,0.976464561179832,green,2,NaN,1052.5183575291,564.510859255183,NaN,NaN,911.784642431215,829.192481806288,1052.5183575291,564.510859255183,844.280285305067,348.874022981887,574.848363820974,480.284751489598,616.568350913644,777.137884467044,0,0,0,4,0,0,0,NaN,vertical,vertical,vertical,vertical,horizontal,none
1c,24,100167,4,39,231,25,F,NA,variable,homogeneous,4,present,0.682014942169189,1,vertical,vertical,1,0.811761315663656,red,4,2,560.378381699593,687.215136548046,1039.62161830041,512.784863451954,887.215136548046,839.621618300407,1039.62161830041,512.784863451954,712.784863451954,360.378381699593,560.378381699593,687.215136548046,0,0,0,0,0,0,0,4,NaN,NaN,horizontal,vertical,vertical,vertical,none,none
1c,24,100167,4,40,232,25,F,NA,variable,homogeneous,4,absent,0.458899974822998,1,vertical,vertical,1,0.952935526106093,green,1,NaN,700.363562235235,834.728737630372,NaN,NaN,700.363562235235,834.728737630372,1034.72873763037,699.636437764765,899.636437764765,365.271262369628,565.271262369628,500.363562235235,0,0,0,0,4,0,0,0,NaN,NaN,vertical,vertical,vertical,vertical,none,none
1c,24,100167,4,41,233,25,F,NA,variable,homogeneous,5,absent,0.388888120651245,1,horizontal,horizontal,1,1.02352263132731,red,5,NaN,556.142287229426,525.445215295702,NaN,NaN,653.738008730483,808.883771293693,953.462830903772,803.65205506206,1041.10723677783,516.980120613425,795.549636358493,345.03883773512,556.142287229426,525.445215295702,0,0,0,0,0,0,4,NaN,horizontal,vertical,vertical,vertical,horizontal,none
1c,24,100167,4,42,234,25,F,NA,variable,homogeneous,6,present,0.586938142776489,1,horizontal,horizontal,1,0.905877455958614,green,3,1,983.431649086356,422.862115532956,861.690083377915,847.425410200379,861.690083377915,847.425410200379,1045.12173246427,670.287525733335,983.431649086356,422.862115532956,738.309916622085,352.574589799621,554.878267535729,529.712474266665,616.568350913644,777.137884467044,0,0,4,0,0,0,vertical,horizontal,horizontal,horizontal,vertical,vertical
1c,24,100167,4,43,235,25,F,NA,variable,homogeneous,3,present,0.731070995330811,1,horizontal,horizontal,1,0.999993596253572,green,1,3,946.261991269517,808.883771293693,545.970351986605,622.224714400653,946.261991269517,808.883771293693,907.767656743878,368.891514305654,545.970351986605,622.224714400653,0,0,0,0,0,0,4,0,0,NaN,NaN,NaN,horizontal,vertical,vertical,none,none,none
1c,24,100167,4,44,236,25,F,NA,variable,homogeneous,3,present,0.413031816482544,0,horizontal,vertical,1,0.952935526106093,red,2,3,808.899371659138,345.155339110131,574.848363820974,719.715248510402,1016.25226451989,735.129412379467,808.899371659138,345.155339110131,574.848363820974,719.715248510402,0,0,0,0,0,0,0,4,0,NaN,NaN,NaN,vertical,horizontal,vertical,none,none,none
1c,24,100167,4,45,237,25,F,NA,variable,homogeneous,3,absent,0.506706953048706,1,horizontal,horizontal,1,0.858819385811135,green,2,NaN,1011.40458100154,457.40580961496,NaN,NaN,817.787900804752,854.378832816255,1011.40458100154,457.40580961496,570.807518193712,488.215357568785,0,0,0,0,0,0,0,4,0,NaN,NaN,NaN,horizontal,horizontal,horizontal,none,none,none
1c,24,100167,4,46,238,25,F,NA,variable,homogeneous,5,present,0.50944995880127,1,horizontal,horizontal,1,0.823525833200525,green,4,1,751.343706178981,349.685068220846,692.232343256122,831.108485694346,692.232343256122,831.108485694346,986.495193912888,773.909581815937,1023.02802532055,476.373546837184,751.343706178981,349.685068220846,546.900731331463,568.923317431687,0,0,0,0,0,4,0,NaN,horizontal,horizontal,vertical,horizontal,horizontal,none
1c,24,100167,4,47,239,25,F,NA,variable,homogeneous,6,present,0.567459106445312,1,horizontal,horizontal,1,0.976464561179832,red,2,6,1034.72873763037,699.636437764765,596.34794493794,753.462830903772,831.076682568313,853.099268668537,1034.72873763037,699.636437764765,1003.65205506206,446.537169096228,768.923317431687,346.900731331463,565.271262369628,500.363562235235,596.34794493794,753.462830903772,0,4,0,0,0,0,horizontal,horizontal,horizontal,vertical,vertical,horizontal
1c,24,100167,4,48,240,25,F,NA,variable,homogeneous,4,present,0.488196134567261,1,horizontal,horizontal,1,1.07058070147479,red,3,4,861.690083377915,352.574589799621,552.574589799621,538.309916622085,738.309916622085,847.425410200379,1047.42541020038,661.690083377915,861.690083377915,352.574589799621,552.574589799621,538.309916622085,0,0,0,0,0,0,4,0,NaN,NaN,vertical,horizontal,horizontal,horizontal,none,none
1c,24,100167,4,49,241,25,F,NA,variable,homogeneous,4,present,0.486294984817505,1,vertical,vertical,1,1.01175811379044,red,2,3,1047.42541020038,538.309916622085,738.309916622085,352.574589799621,861.690083377915,847.425410200379,1047.42541020038,538.309916622085,738.309916622085,352.574589799621,552.574589799621,661.690083377915,0,0,0,0,0,4,0,0,NaN,NaN,horizontal,vertical,vertical,vertical,none,none
1c,24,100167,4,50,242,25,F,NA,variable,homogeneous,5,present,0.493654012680054,1,vertical,vertical,1,0.858819385811135,green,3,4,1032.95409169886,496.282156015671,773.345241866748,346.39691668109,672.5,820.836477965032,970.628304621509,789.501930496736,1032.95409169886,496.282156015671,773.345241866748,346.39691668109,550.57236181288,546.982518841471,0,0,0,0,4,0,0,NaN,vertical,horizontal,vertical,horizontal,vertical,none
1c,24,100167,4,51,243,25,F,NA,variable,homogeneous,5,present,0.513484954833984,1,vertical,vertical,1,0.882348420884874,green,5,2,646.537169096228,803.65205506206,1043.85771277057,525.445215295702,946.261991269517,808.883771293693,1043.85771277057,525.445215295702,804.450363641507,345.03883773512,558.892763222174,516.980120613425,646.537169096228,803.65205506206,0,0,0,0,0,0,4,NaN,vertical,horizontal,horizontal,vertical,vertical,none
1c,24,100167,4,52,244,25,F,NA,variable,homogeneous,4,absent,0.500840902328491,1,horizontal,horizontal,1,1.04705166640105,green,1,NaN,878.799333565612,842.519411655264,NaN,NaN,878.799333565612,842.519411655264,1042.51941165526,521.200666434388,721.200666434388,357.480588344736,557.480588344736,678.799333565612,0,0,0,0,4,0,0,0,NaN,NaN,horizontal,vertical,vertical,horizontal,none,none
1c,24,100167,4,53,245,25,F,NA,variable,homogeneous,4,absent,0.464177131652832,1,vertical,vertical,1,0.858819385811135,red,1,NaN,755.719714694933,851.125977018113,NaN,NaN,755.719714694933,851.125977018113,1051.12597701811,644.280285305067,844.280285305067,348.874022981887,548.874022981887,555.719714694933,0,0,0,0,4,0,0,0,NaN,NaN,vertical,vertical,vertical,vertical,none,none
