experiment,subject,uniqueID,block,trial,trial_cumulative,age,gender,color_cond_blocking,color_history,shape_type,set_size,distractor,rt,acc,target_orient,response_key,response_made,iti,target_color,target_item,distractor_item,target_X,target_Y,distractor_X,distractor_Y,item1_X,item1_Y,item2_X,item2_Y,item3_X,item3_Y,item4_X,item4_Y,item5_X,item5_Y,item6_X,item6_Y,item1_shape,item2_shape,item3_shape,item4_shape,item5_shape,item6_shape,item1_line,item2_line,item3_line,item4_line,item5_line,item6_line
1c,2,100129,1,1,1,18,M,NA,variable,homogeneous,6,absent,0.644818067550659,1,horizontal,horizontal,1,1.05881708621979,green,5,NaN,622.862115532956,416.568350913644,NaN,NaN,729.712474266665,845.121732464271,977.137884467044,783.431649086356,1047.42541020038,538.309916622085,870.287525733335,354.878267535729,622.862115532956,416.568350913644,552.574589799621,661.690083377915,0,0,0,0,4,0,horizontal,vertical,vertical,vertical,horizontal,horizontal
1c,2,100129,1,2,2,18,M,NA,variable,homogeneous,4,present,0.717997074127197,1,horizontal,horizontal,1,0.611764540672302,red,4,2,572.793336331966,715.767577433584,1027.20666366803,484.232422566416,915.767577433584,827.206663668034,1027.20666366803,484.232422566416,684.232422566416,372.793336331966,572.793336331966,715.767577433584,0,0,0,0,0,0,0,4,NaN,NaN,vertical,horizontal,horizontal,horizontal,none,none
1c,2,100129,1,3,3,18,M,NA,variable,homogeneous,6,present,0.514150142669678,1,horizontal,horizontal,1,0.882348976135254,green,6,2,639.523300282292,798.172220171528,1051.86052685176,639.890788585259,891.383827134052,838.063008756786,1051.86052685176,639.890788585259,960.476699717708,401.827779828472,708.616172865948,361.936991243214,548.13947314824,560.109211414741,639.523300282292,798.172220171528,0,0,0,0,0,4,horizontal,vertical,vertical,horizontal,vertical,horizontal
1c,2,100129,1,4,4,18,M,NA,variable,homogeneous,4,absent,0.425620079040527,1,vertical,vertical,1,1.03528800487518,green,4,NaN,554.878267535729,529.712474266665,NaN,NaN,729.712474266665,845.121732464271,1045.12173246427,670.287525733335,870.287525733335,354.878267535729,554.878267535729,529.712474266665,0,0,0,0,0,0,0,4,NaN,NaN,vertical,horizontal,vertical,vertical,none,none
1c,2,100129,1,5,5,18,M,NA,variable,homogeneous,3,present,0.511778116226196,0,horizontal,vertical,1,0.894113516807556,green,3,2,704.475318678942,363.568117085469,1052.5183575291,635.489140744817,643.006323791957,800.942742169714,1052.5183575291,635.489140744817,704.475318678942,363.568117085469,0,0,0,0,0,0,0,0,4,NaN,NaN,NaN,vertical,vertical,horizontal,none,none,none
1c,2,100129,1,6,6,18,M,NA,variable,homogeneous,4,absent,0.581577777862549,1,horizontal,horizontal,1,0.96470076084137,red,3,NaN,672.5,379.163522034968,NaN,NaN,927.5,820.836477965032,1020.83647796503,472.5,672.5,379.163522034968,579.163522034968,727.5,0,0,0,0,0,0,4,0,NaN,NaN,horizontal,horizontal,horizontal,horizontal,none,none
1c,2,100129,1,7,7,18,M,NA,variable,homogeneous,6,present,0.583867073059082,1,vertical,vertical,1,0.729409947395325,red,6,1,545.970351986605,622.224714400653,692.232343256122,831.108485694346,692.232343256122,831.108485694346,946.261991269517,808.883771293693,1054.0296480134,577.775285599347,907.767656743878,368.891514305654,653.738008730483,391.116228706307,545.970351986605,622.224714400653,0,0,0,0,0,4,vertical,vertical,horizontal,vertical,horizontal,vertical
1c,2,100129,1,8,8,18,M,NA,variable,homogeneous,5,present,0.573169946670532,1,vertical,vertical,1,0.870584435462952,red,3,1,1032.95409169886,496.282156015671,672.5,820.836477965032,672.5,820.836477965032,970.628304621509,789.501930496736,1032.95409169886,496.282156015671,773.345241866748,346.39691668109,550.57236181288,546.982518841471,0,0,0,0,4,0,0,NaN,horizontal,vertical,vertical,horizontal,vertical,none
1c,2,100129,1,9,9,18,M,NA,variable,homogeneous,6,absent,0.437558889389038,1,vertical,vertical,1,0.847055354118347,red,3,NaN,983.431649086356,422.862115532956,NaN,NaN,861.690083377915,847.425410200379,1045.12173246427,670.287525733335,983.431649086356,422.862115532956,738.309916622085,352.574589799621,554.878267535729,529.712474266665,616.568350913644,777.137884467044,0,0,4,0,0,0,vertical,horizontal,vertical,horizontal,vertical,vertical
1c,2,100129,1,10,10,18,M,NA,variable,homogeneous,4,present,0.585937976837158,1,horizontal,horizontal,1,0.96470076084137,green,1,2,899.636437764765,834.728737630372,1034.72873763037,500.363562235235,899.636437764765,834.728737630372,1034.72873763037,500.363562235235,700.363562235235,365.271262369628,565.271262369628,699.636437764765,0,0,0,0,4,0,0,0,NaN,NaN,horizontal,vertical,vertical,vertical,none,none
1c,2,100129,1,11,11,18,M,NA,variable,homogeneous,5,present,0.506870985031128,0,horizontal,vertical,1,1.05881708621979,green,2,1,1034.72873763037,699.636437764765,777.775285599347,854.029648013395,777.775285599347,854.029648013395,1034.72873763037,699.636437764765,967.295052392579,407.549057043193,668.665290897936,381.422338320961,551.535633479765,657.362518857686,0,0,0,4,0,0,0,NaN,vertical,horizontal,horizontal,vertical,vertical,none
1c,2,100129,1,12,12,18,M,NA,variable,homogeneous,3,present,0.441593170166016,1,vertical,vertical,1,0.611764540672302,green,3,2,646.537169096228,396.34794493794,1053.09926866854,568.923317431687,700.363562235235,834.728737630372,1053.09926866854,568.923317431687,646.537169096228,396.34794493794,0,0,0,0,0,0,0,0,4,NaN,NaN,NaN,vertical,vertical,vertical,none,none,none
1c,2,100129,1,13,13,18,M,NA,variable,homogeneous,6,absent,0.516278982162476,1,horizontal,horizontal,1,0.894113516807556,red,3,NaN,977.137884467044,416.568350913644,NaN,NaN,870.287525733335,845.121732464271,1047.42541020038,661.690083377915,977.137884467044,416.568350913644,729.712474266665,354.878267535729,552.574589799621,538.309916622085,622.862115532956,783.431649086356,0,0,4,0,0,0,vertical,vertical,horizontal,horizontal,horizontal,horizontal
1c,2,100129,1,14,14,18,M,NA,variable,homogeneous,6,present,0.561231851577759,1,vertical,vertical,1,0.70588086605072,red,2,5,960.476699717708,798.172220171528,639.523300282292,401.827779828472,708.616172865948,838.063008756786,960.476699717708,798.172220171528,1051.86052685176,560.109211414741,891.383827134052,361.936991243214,639.523300282292,401.827779828472,548.13947314824,639.890788585259,0,4,0,0,0,0,vertical,vertical,horizontal,horizontal,horizontal,vertical
1c,2,100129,1,15,15,18,M,NA,variable,homogeneous,3,present,0.530321836471558,1,horizontal,horizontal,1,0.70588086605072,green,3,2,593.700666434388,450.114760665419,1032.95409169886,496.282156015671,773.345241866748,853.60308331891,1032.95409169886,496.282156015671,593.700666434388,450.114760665419,0,0,0,0,0,0,0,0,4,NaN,NaN,NaN,horizontal,horizontal,horizontal,none,none,none
1c,2,100129,1,16,16,18,M,NA,variable,homogeneous,3,absent,0.43842601776123,1,horizontal,horizontal,1,0.647058162689209,red,3,NaN,607.549057043193,432.704947607421,NaN,NaN,751.343706178981,850.314931779154,1041.10723677783,516.980120613425,607.549057043193,432.704947607421,0,0,0,0,0,0,0,0,4,NaN,NaN,NaN,vertical,vertical,horizontal,none,none,none
1c,2,100129,1,17,17,18,M,NA,variable,homogeneous,3,absent,0.510409832000732,1,vertical,vertical,1,0.952936220169067,red,1,NaN,808.899371659138,854.844660889869,NaN,NaN,808.899371659138,854.844660889869,1016.25226451989,464.870587620533,574.848363820974,480.284751489598,0,0,0,0,0,0,4,0,0,NaN,NaN,NaN,vertical,horizontal,horizontal,none,none,none
1c,2,100129,1,18,18,18,M,NA,variable,homogeneous,6,absent,0.510279178619385,1,horizontal,horizontal,1,0.682351784706116,red,6,NaN,568.891514305654,707.767656743878,NaN,NaN,777.775285599347,854.029648013395,1008.88377129369,746.261991269517,1031.10848569435,492.232343256122,822.224714400653,345.970351986605,591.116228706307,453.738008730483,568.891514305654,707.767656743878,0,0,0,0,0,4,horizontal,vertical,horizontal,horizontal,horizontal,horizontal
1c,2,100129,1,19,19,18,M,NA,variable,homogeneous,3,present,0.586981058120728,1,horizontal,horizontal,1,0.717645406723022,red,1,2,935.129412379467,816.252264519889,919.715248510402,374.848363820974,935.129412379467,816.252264519889,919.715248510402,374.848363820974,545.155339110131,608.899371659138,0,0,0,0,0,0,4,0,0,NaN,NaN,NaN,horizontal,vertical,horizontal,none,none,none
1c,2,100129,1,20,20,18,M,NA,variable,homogeneous,4,present,0.519724130630493,1,horizontal,horizontal,1,0.835290813446045,green,1,3,960.476699717708,798.172220171528,639.523300282292,401.827779828472,960.476699717708,798.172220171528,998.172220171528,439.523300282291,639.523300282292,401.827779828472,601.827779828472,760.476699717708,0,0,0,0,4,0,0,0,NaN,NaN,horizontal,vertical,vertical,vertical,none,none
1c,2,100129,1,21,21,18,M,NA,variable,homogeneous,4,present,0.372961044311523,0,vertical,horizontal,1,0.929407138824463,green,3,4,632.704947607421,407.549057043193,607.549057043193,767.295052392579,967.295052392579,792.450942956807,992.450942956807,432.704947607421,632.704947607421,407.549057043193,607.549057043193,767.295052392579,0,0,0,0,0,0,4,0,NaN,NaN,horizontal,horizontal,vertical,horizontal,none,none
1c,2,100129,1,22,22,18,M,NA,variable,homogeneous,5,absent,0.540196895599365,1,horizontal,horizontal,1,0.976465301513672,red,2,NaN,1018.57766167904,731.334709102064,NaN,NaN,742.637481142314,848.464366520235,1018.57766167904,731.334709102064,992.450942956807,432.704947607421,700.363562235235,365.271262369628,545.970351986605,622.224714400653,0,0,0,4,0,0,0,NaN,vertical,horizontal,horizontal,horizontal,horizontal,none
1c,2,100129,1,23,23,18,M,NA,variable,homogeneous,4,absent,0.496699094772339,1,vertical,vertical,1,0.682351784706116,green,2,NaN,1054.37883281626,617.787900804752,NaN,NaN,782.212099195248,854.378832816255,1054.37883281626,617.787900804752,817.787900804752,345.621167183745,545.621167183745,582.212099195248,0,0,0,0,0,4,0,0,NaN,NaN,horizontal,vertical,horizontal,vertical,none,none
1c,2,100129,1,24,24,18,M,NA,variable,homogeneous,4,absent,0.559998989105225,1,vertical,vertical,1,1.04705254554749,red,4,NaN,613.504806087112,426.090418184063,NaN,NaN,626.090418184063,786.495193912888,986.495193912888,773.909581815937,973.909581815937,413.504806087112,613.504806087112,426.090418184063,0,0,0,0,0,0,0,4,NaN,NaN,horizontal,vertical,horizontal,vertical,none,none
1c,2,100129,1,25,25,18,M,NA,variable,homogeneous,6,present,0.730811834335327,1,horizontal,horizontal,1,0.776468110084534,green,6,5,593.700666434388,749.885239334581,567.045908301137,496.282156015671,826.654758133252,853.60308331891,1032.95409169886,703.717843984329,1006.29933356561,450.114760665419,773.345241866748,346.39691668109,567.045908301137,496.282156015671,593.700666434388,749.885239334581,0,0,0,0,0,4,vertical,vertical,horizontal,vertical,vertical,horizontal
1c,2,100129,1,26,26,18,M,NA,variable,homogeneous,5,absent,0.54292893409729,1,horizontal,horizontal,1,0.670587244033813,green,1,NaN,795.549636358493,854.96116226488,NaN,NaN,795.549636358493,854.96116226488,1041.10723677783,683.019879386575,953.462830903772,396.34794493794,653.738008730483,391.116228706307,556.142287229426,674.554784704298,0,0,4,0,0,0,0,NaN,horizontal,vertical,horizontal,horizontal,horizontal,none
1c,2,100129,1,27,27,18,M,NA,variable,homogeneous,6,present,0.614564180374146,1,horizontal,horizontal,1,0.623529081344604,red,2,3,1043.85771277057,674.554784704298,986.495193912888,426.090418184063,857.362518857686,848.464366520235,1043.85771277057,674.554784704298,986.495193912888,426.090418184063,742.637481142314,351.535633479765,556.142287229426,525.445215295702,613.504806087112,773.909581815937,0,4,0,0,0,0,horizontal,horizontal,vertical,vertical,horizontal,horizontal
1c,2,100129,1,28,28,18,M,NA,variable,homogeneous,3,absent,0.372138977050781,1,horizontal,horizontal,1,1.05881708621979,red,3,NaN,568.891514305654,492.232343256122,NaN,NaN,822.224714400653,854.029648013395,1008.88377129369,453.738008730483,568.891514305654,492.232343256122,0,0,0,0,0,0,0,0,4,NaN,NaN,NaN,horizontal,horizontal,horizontal,none,none,none
1c,2,100129,1,29,29,18,M,NA,variable,homogeneous,5,present,0.449331045150757,1,vertical,vertical,1,0.882348976135254,red,2,5,1018.57766167904,731.334709102064,545.970351986605,622.224714400653,742.637481142314,848.464366520235,1018.57766167904,731.334709102064,992.450942956807,432.704947607421,700.363562235235,365.271262369628,545.970351986605,622.224714400653,0,0,0,4,0,0,0,NaN,horizontal,vertical,horizontal,horizontal,horizontal,none
1c,2,100129,1,30,30,18,M,NA,variable,homogeneous,6,absent,0.369910001754761,0,vertical,horizontal,1,0.96470076084137,red,6,NaN,586.139005173917,738.882953928832,NaN,NaN,813.345668841951,854.650531362416,1027.20666366803,715.767577433584,1013.86099482608,461.117046071168,786.654331158049,345.349468637584,572.793336331966,484.232422566416,586.139005173917,738.882953928832,0,0,0,0,0,4,horizontal,vertical,horizontal,horizontal,horizontal,vertical
1c,2,100129,1,31,31,18,M,NA,variable,homogeneous,4,present,0.653316020965576,1,vertical,vertical,1,1.01175892353058,green,4,2,545.349468637584,613.345668841951,1054.65053136242,586.654331158049,813.345668841951,854.650531362416,1054.65053136242,586.654331158049,786.654331158049,345.349468637584,545.349468637584,613.345668841951,0,0,0,0,0,0,0,4,NaN,NaN,horizontal,vertical,horizontal,vertical,none,none
1c,2,100129,1,32,32,18,M,NA,variable,homogeneous,4,absent,0.559634923934937,0,horizontal,vertical,1,0.635293622016907,green,1,NaN,664.870587620533,816.252264519889,NaN,NaN,664.870587620533,816.252264519889,1016.25226451989,735.129412379467,935.129412379467,383.747735480111,583.747735480111,464.870587620533,0,0,0,0,4,0,0,0,NaN,NaN,horizontal,horizontal,horizontal,horizontal,none,none
1c,2,100129,1,33,33,18,M,NA,variable,homogeneous,5,present,0.737968921661377,0,horizontal,vertical,1,0.952936220169067,red,3,5,980.31222920257,419.68777079743,548.13947314824,639.890788585259,760.109211414741,851.86052685176,1027.20666366803,715.767577433584,980.31222920257,419.68777079743,684.232422566416,372.793336331966,548.13947314824,639.890788585259,0,0,0,0,4,0,0,NaN,horizontal,horizontal,horizontal,horizontal,horizontal,none
1c,2,100129,1,34,34,18,M,NA,variable,homogeneous,3,absent,0.593133211135864,1,vertical,vertical,1,0.611764540672302,green,2,NaN,826.654758133252,346.39691668109,NaN,NaN,1006.29933356561,749.885239334581,826.654758133252,346.39691668109,567.045908301137,703.717843984329,0,0,0,0,0,0,0,4,0,NaN,NaN,NaN,vertical,vertical,vertical,none,none,none
1c,2,100129,1,35,35,18,M,NA,variable,homogeneous,6,present,0.683063983917236,1,vertical,vertical,1,1.09411070823669,green,5,4,626.090418184063,413.504806087112,874.554784704298,356.142287229426,725.445215295702,843.857712770574,973.909581815937,786.495193912888,1048.46436652023,542.637481142314,874.554784704298,356.142287229426,626.090418184063,413.504806087112,551.535633479765,657.362518857686,0,0,0,0,4,0,vertical,horizontal,horizontal,vertical,vertical,vertical
1c,2,100129,1,36,36,18,M,NA,variable,homogeneous,4,absent,0.536110877990723,1,vertical,vertical,1,0.764703569412231,red,3,NaN,980.31222920257,419.68777079743,NaN,NaN,619.68777079743,780.31222920257,980.31222920257,780.31222920257,980.31222920257,419.68777079743,619.68777079743,419.68777079743,0,0,0,0,0,0,4,0,NaN,NaN,horizontal,vertical,vertical,horizontal,none,none
1c,2,100129,1,37,37,18,M,NA,variable,homogeneous,5,present,0.630950927734375,1,vertical,vertical,1,1.01175892353058,green,2,5,1031.10848569435,707.767656743878,549.685068220846,648.656293821019,768.923317431687,853.099268668537,1031.10848569435,707.767656743878,973.909581815937,413.504806087112,676.373546837184,376.971974679454,549.685068220846,648.656293821019,0,0,0,4,0,0,0,NaN,horizontal,vertical,horizontal,horizontal,vertical,none
1c,2,100129,1,38,38,18,M,NA,variable,homogeneous,3,present,0.83027195930481,1,horizontal,horizontal,1,0.717645406723022,red,3,2,704.475318678942,363.568117085469,1052.5183575291,635.489140744817,643.006323791957,800.942742169714,1052.5183575291,635.489140744817,704.475318678942,363.568117085469,0,0,0,0,0,0,0,0,4,NaN,NaN,NaN,horizontal,vertical,horizontal,none,none,none
1c,2,100129,1,39,39,18,M,NA,variable,homogeneous,3,absent,0.600282907485962,1,vertical,vertical,1,0.858819894790649,red,3,NaN,567.045908301137,703.717843984329,NaN,NaN,1006.29933356561,749.885239334581,826.654758133252,346.39691668109,567.045908301137,703.717843984329,0,0,0,0,0,0,0,0,4,NaN,NaN,NaN,horizontal,vertical,vertical,none,none,none
1c,2,100129,1,40,40,18,M,NA,variable,homogeneous,5,absent,0.629853963851929,1,vertical,vertical,1,0.670587244033813,red,3,NaN,927.5,379.163522034968,NaN,NaN,826.654758133252,853.60308331891,1049.42763818712,653.017481158529,927.5,379.163522034968,629.371695378491,410.498069503264,567.045908301137,703.717843984329,0,0,0,0,4,0,0,NaN,vertical,horizontal,vertical,vertical,vertical,none
1c,2,100129,1,41,41,18,M,NA,variable,homogeneous,6,present,0.644880056381226,1,horizontal,horizontal,1,1.09411070823669,red,1,6,800,855,579.163522034968,727.5,800,855,1020.83647796503,727.5,1020.83647796503,472.5,800,345,579.163522034968,472.5,579.163522034968,727.5,4,0,0,0,0,0,horizontal,vertical,vertical,vertical,horizontal,vertical
1c,2,100129,1,42,42,18,M,NA,variable,homogeneous,5,present,0.759171962738037,1,vertical,vertical,1,0.894113516807556,green,5,3,563.568117085469,695.524681321058,935.129412379467,383.747735480111,817.787900804752,854.378832816255,1047.42541020038,661.690083377915,935.129412379467,383.747735480111,636.089159529932,404.658667004661,563.568117085469,695.524681321058,0,0,0,0,0,0,4,NaN,vertical,vertical,horizontal,horizontal,vertical,none
1c,2,100129,1,43,43,18,M,NA,variable,homogeneous,4,present,0.699698925018311,1,vertical,vertical,1,0.647058162689209,red,3,2,639.523300282292,401.827779828472,998.172220171528,439.523300282291,960.476699717708,798.172220171528,998.172220171528,439.523300282291,639.523300282292,401.827779828472,601.827779828472,760.476699717708,0,0,0,0,0,0,4,0,NaN,NaN,horizontal,horizontal,vertical,vertical,none,none
1c,2,100129,1,44,44,18,M,NA,variable,homogeneous,3,absent,0.59682297706604,1,horizontal,horizontal,1,0.741174488067627,green,3,NaN,700.363562235235,365.271262369628,NaN,NaN,646.537169096228,803.65205506206,1053.09926866854,631.076682568313,700.363562235235,365.271262369628,0,0,0,0,0,0,0,0,4,NaN,NaN,NaN,horizontal,vertical,horizontal,none,none,none
1c,2,100129,1,45,45,18,M,NA,variable,homogeneous,3,present,0.549757957458496,1,vertical,vertical,1,0.870584435462952,red,3,2,545.621167183745,582.212099195248,942.594190385041,388.595418998464,911.784642431215,829.192481806288,942.594190385041,388.595418998464,545.621167183745,582.212099195248,0,0,0,0,0,0,0,0,4,NaN,NaN,NaN,vertical,vertical,vertical,none,none,none
1c,2,100129,1,46,46,18,M,NA,variable,homogeneous,5,present,0.541918992996216,1,horizontal,horizontal,1,0.847055354118347,green,5,3,646.537169096228,803.65205506206,804.450363641507,345.03883773512,946.261991269517,808.883771293693,1043.85771277057,525.445215295702,804.450363641507,345.03883773512,558.892763222174,516.980120613425,646.537169096228,803.65205506206,0,0,0,0,0,0,4,NaN,horizontal,vertical,horizontal,horizontal,horizontal,none
1c,2,100129,1,47,47,18,M,NA,variable,homogeneous,3,present,0.628231048583984,1,vertical,vertical,1,0.752939028739929,green,3,1,572.793336331966,715.767577433584,1013.86099482608,738.882953928832,1013.86099482608,738.882953928832,813.345668841951,345.349468637584,572.793336331966,715.767577433584,0,0,0,0,0,0,0,0,4,NaN,NaN,NaN,horizontal,horizontal,vertical,none,none,none
1c,2,100129,1,48,48,18,M,NA,variable,homogeneous,6,present,0.575448989868164,1,vertical,vertical,1,0.729409947395325,green,1,3,831.076682568313,853.099268668537,1003.65205506206,446.537169096228,831.076682568313,853.099268668537,1034.72873763037,699.636437764765,1003.65205506206,446.537169096228,768.923317431687,346.900731331463,565.271262369628,500.363562235235,596.34794493794,753.462830903772,4,0,0,0,0,0,vertical,horizontal,horizontal,horizontal,horizontal,horizontal
1c,2,100129,1,49,49,18,M,NA,variable,homogeneous,5,absent,0.594892978668213,1,horizontal,horizontal,1,0.976465301513672,red,5,NaN,545.03883773512,595.549636358493,NaN,NaN,716.980120613425,841.107236777826,1003.65205506206,753.462830903772,1008.88377129369,453.738008730483,725.445215295702,356.142287229426,545.03883773512,595.549636358493,0,0,0,0,0,0,4,NaN,vertical,horizontal,vertical,vertical,horizontal,none
1c,2,100129,1,50,50,18,M,NA,variable,homogeneous,6,absent,0.670866966247559,1,horizontal,horizontal,1,1.01175892353058,green,1,NaN,804.450363641507,854.96116226488,NaN,NaN,804.450363641507,854.96116226488,1023.02802532055,723.626453162816,1018.57766167904,468.665290897936,795.549636358493,345.03883773512,576.971974679454,476.373546837184,581.422338320961,731.334709102064,4,0,0,0,0,0,horizontal,vertical,horizontal,vertical,horizontal,horizontal
1c,2,100129,1,51,51,18,M,NA,variable,homogeneous,3,absent,0.459825038909912,1,vertical,vertical,1,0.952936220169067,green,1,NaN,746.982518841471,849.42763818712,NaN,NaN,746.982518841471,849.42763818712,1042.51941165526,521.200666434388,610.498069503264,429.371695378491,0,0,0,0,0,0,4,0,0,NaN,NaN,NaN,vertical,horizontal,horizontal,none,none,none
1c,2,100129,1,52,52,18,M,NA,variable,homogeneous,4,present,0.708781003952026,1,vertical,vertical,1,0.776468110084534,red,2,4,998.172220171528,439.523300282291,601.827779828472,760.476699717708,960.476699717708,798.172220171528,998.172220171528,439.523300282291,639.523300282292,401.827779828472,601.827779828472,760.476699717708,0,0,0,0,0,4,0,0,NaN,NaN,vertical,vertical,horizontal,horizontal,none,none
1c,2,100129,1,53,53,18,M,NA,variable,homogeneous,4,absent,0.64868688583374,1,horizontal,horizontal,1,1.07058162689209,red,3,NaN,725.445215295702,356.142287229426,NaN,NaN,874.554784704298,843.857712770574,1043.85771277057,525.445215295702,725.445215295702,356.142287229426,556.142287229426,674.554784704298,0,0,0,0,0,0,4,0,NaN,NaN,vertical,horizontal,horizontal,horizontal,none,none
1c,2,100129,1,54,54,18,M,NA,variable,homogeneous,3,absent,0.703452110290527,1,horizontal,horizontal,1,0.694116325378418,green,1,NaN,704.475318678942,836.431882914531,NaN,NaN,704.475318678942,836.431882914531,1052.5183575291,564.510859255183,643.006323791957,399.057257830286,0,0,0,0,0,0,4,0,0,NaN,NaN,NaN,horizontal,vertical,horizontal,none,none,none
1c,2,100129,1,55,55,18,M,NA,variable,homogeneous,6,absent,0.465110063552856,1,vertical,vertical,1,0.764703569412231,green,5,NaN,650.114760665419,393.700666434388,NaN,NaN,696.282156015671,832.954091698863,949.885239334581,806.299333565612,1053.60308331891,573.345241866748,903.717843984329,367.045908301137,650.114760665419,393.700666434388,546.39691668109,626.654758133252,0,0,0,0,4,0,vertical,horizontal,vertical,vertical,vertical,vertical
1c,2,100129,1,56,56,18,M,NA,variable,homogeneous,4,absent,0.598613023757935,1,horizontal,horizontal,1,0.611764540672302,green,1,NaN,661.117046071168,813.860994826083,NaN,NaN,661.117046071168,813.860994826083,1013.86099482608,738.882953928832,938.882953928832,386.139005173917,586.139005173917,461.117046071168,0,0,0,0,4,0,0,0,NaN,NaN,horizontal,horizontal,horizontal,vertical,none,none
1c,2,100129,1,57,57,18,M,NA,variable,homogeneous,5,present,0.583693981170654,1,horizontal,horizontal,1,0.835290813446045,red,2,4,1008.88377129369,746.261991269517,716.980120613425,358.892763222174,725.445215295702,843.857712770574,1008.88377129369,746.261991269517,1003.65205506206,446.537169096228,716.980120613425,358.892763222174,545.03883773512,604.450363641507,0,0,0,4,0,0,0,NaN,vertical,horizontal,vertical,vertical,vertical,none
1c,2,100129,1,58,58,18,M,NA,variable,homogeneous,5,absent,0.483533143997192,1,vertical,vertical,1,0.999994382858276,red,4,NaN,696.282156015671,367.045908301137,NaN,NaN,746.982518841471,849.42763818712,1020.83647796503,727.5,989.501930496736,429.371695378491,696.282156015671,367.045908301137,546.39691668109,626.654758133252,0,0,0,0,0,4,0,NaN,vertical,vertical,vertical,vertical,horizontal,none
1c,2,100129,1,59,59,18,M,NA,variable,homogeneous,5,absent,0.715033054351807,1,vertical,vertical,1,1.08234616756439,green,5,NaN,552.574589799621,661.690083377915,NaN,NaN,782.212099195248,854.378832816255,1036.43188291453,695.524681321058,963.910840470068,404.658667004661,664.870587620533,383.747735480111,552.574589799621,661.690083377915,0,0,0,0,0,0,4,NaN,horizontal,horizontal,horizontal,horizontal,vertical,none
1c,2,100129,1,60,60,18,M,NA,variable,homogeneous,6,absent,0.662061929702759,1,vertical,vertical,1,1.02352346420288,green,1,NaN,708.616172865948,838.063008756786,NaN,NaN,708.616172865948,838.063008756786,960.476699717708,798.172220171528,1051.86052685176,560.109211414741,891.383827134052,361.936991243214,639.523300282292,401.827779828472,548.13947314824,639.890788585259,4,0,0,0,0,0,vertical,horizontal,horizontal,horizontal,vertical,horizontal
1c,2,100129,1,61,61,18,M,NA,variable,homogeneous,4,present,0.562641143798828,1,horizontal,horizontal,1,0.764703569412231,red,1,3,980.31222920257,780.31222920257,619.68777079743,419.68777079743,980.31222920257,780.31222920257,980.31222920257,419.68777079743,619.68777079743,419.68777079743,619.68777079743,780.31222920257,0,0,0,0,4,0,0,0,NaN,NaN,horizontal,vertical,vertical,horizontal,none,none
1c,2,100129,1,62,62,18,M,NA,variable,homogeneous,5,absent,0.979666948318481,1,vertical,vertical,1,1.08234616756439,green,3,NaN,844.280285305067,348.874022981887,NaN,NaN,911.784642431215,829.192481806288,1052.5183575291,564.510859255183,844.280285305067,348.874022981887,574.848363820974,480.284751489598,616.568350913644,777.137884467044,0,0,0,0,4,0,0,NaN,vertical,vertical,vertical,horizontal,vertical,none
1c,2,100129,1,63,63,18,M,NA,variable,homogeneous,3,present,0.462784051895142,1,vertical,vertical,1,0.752939028739929,red,2,3,865.998856501143,353.688914296288,553.688914296288,665.998856501143,980.31222920257,780.31222920257,865.998856501143,353.688914296288,553.688914296288,665.998856501143,0,0,0,0,0,0,0,4,0,NaN,NaN,NaN,horizontal,vertical,horizontal,none,none,none
1c,2,100129,1,64,64,18,M,NA,variable,homogeneous,5,absent,0.474241018295288,1,horizontal,horizontal,1,0.717645406723022,green,5,NaN,629.371695378491,789.501930496736,NaN,NaN,927.5,820.836477965032,1049.42763818712,546.982518841471,826.654758133252,346.39691668109,567.045908301137,496.282156015671,629.371695378491,789.501930496736,0,0,0,0,0,0,4,NaN,horizontal,vertical,vertical,vertical,horizontal,none
1c,2,100129,2,1,65,18,M,NA,variable,homogeneous,6,present,0.734832048416138,1,horizontal,horizontal,1,0.988229842185974,red,1,3,813.345668841951,854.650531362416,1013.86099482608,461.117046071168,813.345668841951,854.650531362416,1027.20666366803,715.767577433584,1013.86099482608,461.117046071168,786.654331158049,345.349468637584,572.793336331966,484.232422566416,586.139005173917,738.882953928832,4,0,0,0,0,0,horizontal,horizontal,horizontal,horizontal,horizontal,vertical
1c,2,100129,2,2,66,18,M,NA,variable,homogeneous,6,absent,0.442202091217041,1,vertical,vertical,1,1.02352346420288,green,2,NaN,989.501930496736,770.628304621509,NaN,NaN,746.982518841471,849.42763818712,989.501930496736,770.628304621509,1042.51941165526,521.200666434388,853.017481158529,350.57236181288,610.498069503264,429.371695378491,557.480588344736,678.799333565612,0,4,0,0,0,0,vertical,vertical,vertical,horizontal,horizontal,horizontal
1c,2,100129,2,3,67,18,M,NA,variable,homogeneous,3,absent,0.658325910568237,1,horizontal,horizontal,1,0.952936220169067,red,2,NaN,883.019879386575,358.892763222174,NaN,NaN,967.295052392579,792.450942956807,883.019879386575,358.892763222174,549.685068220846,648.656293821019,0,0,0,0,0,0,0,4,0,NaN,NaN,NaN,horizontal,horizontal,horizontal,none,none,none
1c,2,100129,2,4,68,18,M,NA,variable,homogeneous,3,absent,0.498656034469604,1,vertical,vertical,1,0.952936220169067,green,1,NaN,777.775285599347,854.029648013395,NaN,NaN,777.775285599347,854.029648013395,1031.10848569435,492.232343256122,591.116228706307,453.738008730483,0,0,0,0,0,0,4,0,0,NaN,NaN,NaN,vertical,vertical,vertical,none,none,none
1c,2,100129,2,5,69,18,M,NA,variable,homogeneous,5,present,0.536728858947754,1,vertical,vertical,1,0.799997191429138,red,3,5,1032.95409169886,496.282156015671,550.57236181288,546.982518841471,672.5,820.836477965032,970.628304621509,789.501930496736,1032.95409169886,496.282156015671,773.345241866748,346.39691668109,550.57236181288,546.982518841471,0,0,0,0,4,0,0,NaN,vertical,horizontal,vertical,vertical,horizontal,none
1c,2,100129,2,6,70,18,M,NA,variable,homogeneous,3,present,0.505743026733398,1,vertical,vertical,1,0.70588086605072,green,3,2,760.109211414741,348.13947314824,1038.06300875679,691.383827134052,601.827779828472,760.476699717708,1038.06300875679,691.383827134052,760.109211414741,348.13947314824,0,0,0,0,0,0,0,0,4,NaN,NaN,NaN,horizontal,horizontal,vertical,none,none,none
1c,2,100129,2,7,71,18,M,NA,variable,homogeneous,5,present,0.423373937606812,1,vertical,vertical,1,0.764703569412231,green,3,4,953.462830903772,396.34794493794,653.738008730483,391.116228706307,795.549636358493,854.96116226488,1041.10723677783,683.019879386575,953.462830903772,396.34794493794,653.738008730483,391.116228706307,556.142287229426,674.554784704298,0,0,0,0,4,0,0,NaN,horizontal,vertical,vertical,vertical,horizontal,none
1c,2,100129,2,8,72,18,M,NA,variable,homogeneous,5,present,0.511954069137573,1,horizontal,horizontal,1,0.788232650756836,red,1,5,874.554784704298,843.857712770574,591.116228706307,746.261991269517,874.554784704298,843.857712770574,1054.96116226488,604.450363641507,883.019879386575,358.892763222174,596.34794493794,446.537169096228,591.116228706307,746.261991269517,0,0,4,0,0,0,0,NaN,horizontal,vertical,horizontal,horizontal,vertical,none
1c,2,100129,2,9,73,18,M,NA,variable,homogeneous,3,present,0.48747181892395,1,vertical,vertical,1,0.858819894790649,red,2,3,1003.65205506206,446.537169096228,565.271262369628,500.363562235235,831.076682568313,853.099268668537,1003.65205506206,446.537169096228,565.271262369628,500.363562235235,0,0,0,0,0,0,0,4,0,NaN,NaN,NaN,horizontal,vertical,vertical,none,none,none
1c,2,100129,2,10,74,18,M,NA,variable,homogeneous,5,absent,0.545400142669678,1,horizontal,horizontal,1,0.999994382858276,red,2,NaN,1042.51941165526,678.799333565612,NaN,NaN,800,855,1042.51941165526,678.799333565612,949.885239334581,393.700666434388,650.114760665419,393.700666434388,557.480588344736,678.799333565612,0,0,0,4,0,0,0,NaN,vertical,horizontal,horizontal,vertical,vertical,none
1c,2,100129,2,11,75,18,M,NA,variable,homogeneous,5,absent,0.455930948257446,1,horizontal,horizontal,1,0.776468110084534,green,2,NaN,963.910840470068,795.341332995339,NaN,NaN,664.870587620533,816.252264519889,963.910840470068,795.341332995339,1036.43188291453,504.475318678942,782.212099195248,345.621167183745,552.574589799621,538.309916622085,0,0,0,4,0,0,0,NaN,vertical,horizontal,horizontal,horizontal,vertical,none
1c,2,100129,2,12,76,18,M,NA,variable,homogeneous,6,present,0.445626020431519,1,horizontal,horizontal,1,1.02352346420288,green,2,4,1036.43188291453,695.524681321058,764.510859255183,347.4816424709,835.489140744817,852.518357529101,1036.43188291453,695.524681321058,1000.94274216971,443.006323791957,764.510859255183,347.4816424709,563.568117085469,504.475318678942,599.057257830286,756.993676208043,0,4,0,0,0,0,horizontal,horizontal,horizontal,vertical,horizontal,horizontal
1c,2,100129,2,13,77,18,M,NA,variable,homogeneous,3,present,0.474871873855591,1,vertical,vertical,1,0.81176173210144,red,3,1,791.100628340862,345.155339110131,583.747735480111,735.129412379467,583.747735480111,735.129412379467,1025.15163617903,719.715248510402,791.100628340862,345.155339110131,0,0,0,0,0,0,0,0,4,NaN,NaN,NaN,vertical,horizontal,vertical,none,none,none
1c,2,100129,2,14,78,18,M,NA,variable,homogeneous,5,present,0.349493026733398,1,horizontal,horizontal,1,1.05881708621979,green,1,3,650.114760665419,806.299333565612,1042.51941165526,521.200666434388,650.114760665419,806.299333565612,949.885239334581,806.299333565612,1042.51941165526,521.200666434388,800,345,557.480588344736,521.200666434388,0,0,4,0,0,0,0,NaN,horizontal,horizontal,horizontal,horizontal,horizontal,none
1c,2,100129,2,15,79,18,M,NA,variable,homogeneous,4,present,0.482481002807617,1,vertical,vertical,1,0.882348976135254,red,4,2,616.568350913644,422.862115532956,983.431649086356,777.137884467044,622.862115532956,783.431649086356,983.431649086356,777.137884467044,977.137884467044,416.568350913644,616.568350913644,422.862115532956,0,0,0,0,0,0,0,4,NaN,NaN,horizontal,vertical,vertical,vertical,none,none
1c,2,100129,2,16,80,18,M,NA,variable,homogeneous,5,present,0.516312122344971,1,horizontal,horizontal,1,0.6,green,3,1,857.362518857686,351.535633479765,899.636437764765,834.728737630372,899.636437764765,834.728737630372,1054.0296480134,577.775285599347,857.362518857686,351.535633479765,581.422338320961,468.665290897936,607.549057043193,767.295052392579,0,0,0,0,4,0,0,NaN,vertical,vertical,horizontal,vertical,horizontal,none
1c,2,100129,2,17,81,18,M,NA,variable,homogeneous,6,present,0.480525970458984,1,vertical,vertical,1,1.08234616756439,green,1,4,688.215357568785,829.192481806288,911.784642431215,370.807518193712,688.215357568785,829.192481806288,942.594190385041,811.404581001536,1054.37883281626,582.212099195248,911.784642431215,370.807518193712,657.405809614959,388.595418998464,545.621167183745,617.787900804752,4,0,0,0,0,0,vertical,vertical,vertical,horizontal,horizontal,horizontal
1c,2,100129,2,18,82,18,M,NA,variable,homogeneous,3,absent,0.595722913742065,0,vertical,horizontal,1,1.08234616756439,red,2,NaN,1034.72873763037,699.636437764765,NaN,NaN,596.34794493794,753.462830903772,1034.72873763037,699.636437764765,768.923317431687,346.900731331463,0,0,0,0,0,0,0,4,0,NaN,NaN,NaN,horizontal,vertical,vertical,none,none,none
1c,2,100129,2,19,83,18,M,NA,variable,homogeneous,6,absent,0.532401084899902,1,vertical,vertical,1,1.02352346420288,red,5,NaN,557.480588344736,521.200666434388,NaN,NaN,853.017481158529,849.42763818712,1042.51941165526,678.799333565612,989.501930496736,429.371695378491,746.982518841471,350.57236181288,557.480588344736,521.200666434388,610.498069503264,770.628304621509,0,0,0,0,4,0,vertical,vertical,vertical,horizontal,vertical,vertical
1c,2,100129,2,20,84,18,M,NA,variable,homogeneous,3,present,0.554886102676392,1,horizontal,horizontal,1,0.988229842185974,red,1,3,963.910840470068,795.341332995339,548.874022981887,644.280285305067,963.910840470068,795.341332995339,887.215136548046,360.378381699593,548.874022981887,644.280285305067,0,0,0,0,0,0,4,0,0,NaN,NaN,NaN,horizontal,vertical,horizontal,none,none,none
1c,2,100129,2,21,85,18,M,NA,variable,homogeneous,5,absent,0.477965116500854,0,horizontal,vertical,1,0.976465301513672,green,2,NaN,1054.96116226488,595.549636358493,NaN,NaN,883.019879386575,841.107236777826,1054.96116226488,595.549636358493,874.554784704298,356.142287229426,591.116228706307,453.738008730483,596.34794493794,753.462830903772,0,0,0,4,0,0,0,NaN,vertical,horizontal,vertical,horizontal,horizontal,none
1c,2,100129,2,22,86,18,M,NA,variable,homogeneous,4,present,0.590881824493408,1,horizontal,horizontal,1,0.96470076084137,red,3,4,629.371695378491,410.498069503264,610.498069503264,770.628304621509,970.628304621509,789.501930496736,989.501930496736,429.371695378491,629.371695378491,410.498069503264,610.498069503264,770.628304621509,0,0,0,0,0,0,4,0,NaN,NaN,horizontal,horizontal,horizontal,horizontal,none,none
1c,2,100129,2,23,87,18,M,NA,variable,homogeneous,4,present,0.512362957000732,1,vertical,vertical,1,1.07058162689209,red,2,3,998.172220171528,439.523300282291,639.523300282292,401.827779828472,960.476699717708,798.172220171528,998.172220171528,439.523300282291,639.523300282292,401.827779828472,601.827779828472,760.476699717708,0,0,0,0,0,4,0,0,NaN,NaN,vertical,vertical,horizontal,vertical,none,none
1c,2,100129,2,24,88,18,M,NA,variable,homogeneous,6,absent,0.561530113220215,1,horizontal,horizontal,1,0.952936220169067,red,4,NaN,874.554784704298,356.142287229426,NaN,NaN,725.445215295702,843.857712770574,973.909581815937,786.495193912888,1048.46436652023,542.637481142314,874.554784704298,356.142287229426,626.090418184063,413.504806087112,551.535633479765,657.362518857686,0,0,0,4,0,0,vertical,vertical,horizontal,horizontal,horizontal,vertical
1c,2,100129,2,25,89,18,M,NA,variable,homogeneous,4,absent,0.473017930984497,1,vertical,vertical,1,1.01175892353058,red,1,NaN,956.993676208043,800.942742169714,NaN,NaN,956.993676208043,800.942742169714,1000.94274216971,443.006323791957,643.006323791957,399.057257830286,599.057257830286,756.993676208043,0,0,0,0,4,0,0,0,NaN,NaN,vertical,vertical,vertical,vertical,none,none
1c,2,100129,2,26,90,18,M,NA,variable,homogeneous,3,absent,0.48487401008606,1,horizontal,horizontal,1,0.70588086605072,green,3,NaN,786.654331158049,345.349468637584,NaN,NaN,586.139005173917,738.882953928832,1027.20666366803,715.767577433584,786.654331158049,345.349468637584,0,0,0,0,0,0,0,0,4,NaN,NaN,NaN,vertical,horizontal,horizontal,none,none,none
1c,2,100129,2,27,91,18,M,NA,variable,homogeneous,3,absent,0.443547010421753,1,horizontal,horizontal,1,1.03528800487518,red,2,NaN,899.636437764765,365.271262369628,NaN,NaN,953.462830903772,803.65205506206,899.636437764765,365.271262369628,546.900731331463,631.076682568313,0,0,0,0,0,0,0,4,0,NaN,NaN,NaN,horizontal,horizontal,horizontal,none,none,none
1c,2,100129,2,28,92,18,M,NA,variable,homogeneous,3,present,0.515787124633789,1,horizontal,horizontal,1,0.952936220169067,red,1,2,989.501930496736,770.628304621509,853.017481158529,350.57236181288,989.501930496736,770.628304621509,853.017481158529,350.57236181288,557.480588344736,678.799333565612,0,0,0,0,0,0,4,0,0,NaN,NaN,NaN,horizontal,vertical,vertical,none,none,none
1c,2,100129,2,29,93,18,M,NA,variable,homogeneous,6,present,0.597382068634033,1,horizontal,horizontal,1,0.976465301513672,green,6,1,672.5,820.836477965032,927.5,820.836477965032,927.5,820.836477965032,1055,600,927.5,379.163522034968,672.5,379.163522034968,545,600,672.5,820.836477965032,0,0,0,0,0,4,vertical,vertical,vertical,horizontal,horizontal,horizontal
1c,2,100129,2,30,94,18,M,NA,variable,homogeneous,5,absent,0.427156925201416,1,horizontal,horizontal,1,1.08234616756439,red,4,NaN,570.807518193712,488.215357568785,NaN,NaN,919.715248510402,825.151636179026,1051.12597701811,555.719714694933,835.489140744817,347.4816424709,570.807518193712,488.215357568785,622.862115532956,783.431649086356,0,0,0,0,0,4,0,NaN,horizontal,horizontal,vertical,horizontal,horizontal,none
1c,2,100129,2,31,95,18,M,NA,variable,homogeneous,4,absent,0.570420026779175,1,horizontal,horizontal,1,0.717645406723022,green,3,NaN,777.775285599347,345.970351986605,NaN,NaN,822.224714400653,854.029648013395,1054.0296480134,577.775285599347,777.775285599347,345.970351986605,545.970351986605,622.224714400653,0,0,0,0,0,0,4,0,NaN,NaN,vertical,vertical,horizontal,horizontal,none,none
1c,2,100129,2,32,96,18,M,NA,variable,homogeneous,3,present,0.490090847015381,1,horizontal,horizontal,1,0.6,green,3,2,676.373546837184,376.971974679454,1054.96116226488,604.450363641507,668.665290897936,818.577661679039,1054.96116226488,604.450363641507,676.373546837184,376.971974679454,0,0,0,0,0,0,0,0,4,NaN,NaN,NaN,horizontal,vertical,horizontal,none,none,none
1c,2,100129,2,33,97,18,M,NA,variable,homogeneous,4,present,0.458968877792358,1,horizontal,horizontal,1,0.952936220169067,red,4,3,557.480588344736,678.799333565612,721.200666434388,357.480588344736,878.799333565612,842.519411655264,1042.51941165526,521.200666434388,721.200666434388,357.480588344736,557.480588344736,678.799333565612,0,0,0,0,0,0,0,4,NaN,NaN,horizontal,vertical,horizontal,horizontal,none,none
1c,2,100129,2,34,98,18,M,NA,variable,homogeneous,5,absent,0.592389106750488,1,vertical,vertical,1,0.81176173210144,green,2,NaN,949.885239334581,806.299333565612,NaN,NaN,650.114760665419,806.299333565612,949.885239334581,806.299333565612,1042.51941165526,521.200666434388,800,345,557.480588344736,521.200666434388,0,0,0,4,0,0,0,NaN,horizontal,vertical,vertical,vertical,horizontal,none
1c,2,100129,2,35,99,18,M,NA,variable,homogeneous,5,absent,0.533931970596313,1,vertical,vertical,1,0.858819894790649,red,3,NaN,1034.72873763037,500.363562235235,NaN,NaN,668.665290897936,818.577661679039,967.295052392579,792.450942956807,1034.72873763037,500.363562235235,777.775285599347,345.970351986605,551.535633479765,542.637481142314,0,0,0,0,4,0,0,NaN,vertical,horizontal,vertical,horizontal,horizontal,none
1c,2,100129,2,36,100,18,M,NA,variable,homogeneous,4,absent,0.563565969467163,1,vertical,vertical,1,0.741174488067627,red,4,NaN,554.878267535729,529.712474266665,NaN,NaN,729.712474266665,845.121732464271,1045.12173246427,670.287525733335,870.287525733335,354.878267535729,554.878267535729,529.712474266665,0,0,0,0,0,0,0,4,NaN,NaN,vertical,horizontal,horizontal,vertical,none,none
1c,2,100129,2,37,101,18,M,NA,variable,homogeneous,6,present,0.55637001991272,1,vertical,vertical,1,1.07058162689209,red,3,1,1013.86099482608,461.117046071168,813.345668841951,854.650531362416,813.345668841951,854.650531362416,1027.20666366803,715.767577433584,1013.86099482608,461.117046071168,786.654331158049,345.349468637584,572.793336331966,484.232422566416,586.139005173917,738.882953928832,0,0,4,0,0,0,horizontal,horizontal,vertical,vertical,vertical,horizontal
1c,2,100129,2,38,102,18,M,NA,variable,homogeneous,4,absent,0.519696950912476,1,vertical,vertical,1,0.799997191429138,green,2,NaN,989.501930496736,770.628304621509,NaN,NaN,629.371695378491,789.501930496736,989.501930496736,770.628304621509,970.628304621509,410.498069503264,610.498069503264,429.371695378491,0,0,0,0,0,4,0,0,NaN,NaN,vertical,vertical,horizontal,horizontal,none,none
1c,2,100129,2,39,103,18,M,NA,variable,homogeneous,6,absent,0.467394113540649,1,horizontal,horizontal,1,0.658822703361511,green,2,NaN,1048.46436652023,657.362518857686,NaN,NaN,874.554784704298,843.857712770574,1048.46436652023,657.362518857686,973.909581815937,413.504806087112,725.445215295702,356.142287229426,551.535633479765,542.637481142314,626.090418184063,786.495193912888,0,4,0,0,0,0,horizontal,horizontal,vertical,horizontal,horizontal,horizontal
1c,2,100129,2,40,104,18,M,NA,variable,homogeneous,6,absent,0.417118072509766,1,vertical,vertical,1,0.81176173210144,red,3,NaN,995.341332995339,436.089159529932,NaN,NaN,844.280285305067,851.125977018113,1039.62161830041,687.215136548046,995.341332995339,436.089159529932,755.719714694933,348.874022981887,560.378381699593,512.784863451954,604.658667004661,763.910840470068,0,0,4,0,0,0,vertical,vertical,vertical,vertical,horizontal,vertical
1c,2,100129,2,41,105,18,M,NA,variable,homogeneous,3,present,0.497666120529175,1,vertical,vertical,1,0.799997191429138,green,2,3,1013.86099482608,461.117046071168,572.793336331966,484.232422566416,813.345668841951,854.650531362416,1013.86099482608,461.117046071168,572.793336331966,484.232422566416,0,0,0,0,0,0,0,4,0,NaN,NaN,NaN,vertical,vertical,horizontal,none,none,none
1c,2,100129,2,42,106,18,M,NA,variable,homogeneous,5,present,0.484426975250244,1,horizontal,horizontal,1,0.635293622016907,red,4,1,636.089159529932,404.658667004661,817.787900804752,854.378832816255,817.787900804752,854.378832816255,1047.42541020038,661.690083377915,935.129412379467,383.747735480111,636.089159529932,404.658667004661,563.568117085469,695.524681321058,0,0,0,0,0,4,0,NaN,horizontal,horizontal,vertical,horizontal,vertical,none
1c,2,100129,2,43,107,18,M,NA,variable,homogeneous,6,present,0.40360689163208,1,vertical,vertical,1,0.658822703361511,red,3,6,980.31222920257,419.68777079743,619.68777079743,780.31222920257,865.998856501143,846.311085703712,1046.31108570371,665.998856501143,980.31222920257,419.68777079743,734.001143498857,353.688914296288,553.688914296288,534.001143498857,619.68777079743,780.31222920257,0,0,4,0,0,0,horizontal,horizontal,vertical,vertical,vertical,horizontal
1c,2,100129,2,44,108,18,M,NA,variable,homogeneous,4,present,0.399310111999512,1,vertical,vertical,1,0.976465301513672,green,3,4,895.524681321058,363.568117085469,563.568117085469,504.475318678942,704.475318678942,836.431882914531,1036.43188291453,695.524681321058,895.524681321058,363.568117085469,563.568117085469,504.475318678942,0,0,0,0,0,0,4,0,NaN,NaN,vertical,vertical,vertical,horizontal,none,none
1c,2,100129,2,45,109,18,M,NA,variable,homogeneous,3,absent,0.532315969467163,1,vertical,vertical,1,1.04705254554749,green,3,NaN,586.139005173917,461.117046071168,NaN,NaN,786.654331158049,854.650531362416,1027.20666366803,484.232422566416,586.139005173917,461.117046071168,0,0,0,0,0,0,0,0,4,NaN,NaN,NaN,vertical,vertical,vertical,none,none,none
1c,2,100129,2,46,110,18,M,NA,variable,homogeneous,6,absent,0.413197994232178,1,horizontal,horizontal,1,0.882348976135254,red,5,NaN,570.807518193712,488.215357568785,NaN,NaN,817.787900804752,854.378832816255,1029.19248180629,711.784642431215,1011.40458100154,457.40580961496,782.212099195248,345.621167183745,570.807518193712,488.215357568785,588.595418998464,742.594190385041,0,0,0,0,4,0,horizontal,vertical,horizontal,horizontal,horizontal,vertical
1c,2,100129,2,47,111,18,M,NA,variable,homogeneous,4,present,0.470255136489868,1,vertical,vertical,1,1.02352346420288,green,3,2,676.373546837184,376.971974679454,1023.02802532055,476.373546837184,923.626453162816,823.028025320546,1023.02802532055,476.373546837184,676.373546837184,376.971974679454,576.971974679454,723.626453162816,0,0,0,0,0,0,4,0,NaN,NaN,horizontal,horizontal,vertical,vertical,none,none
1c,2,100129,2,48,112,18,M,NA,variable,homogeneous,5,present,0.438464879989624,1,vertical,vertical,1,0.941171679496765,green,4,2,800,345,949.885239334581,806.299333565612,650.114760665419,806.299333565612,949.885239334581,806.299333565612,1042.51941165526,521.200666434388,800,345,557.480588344736,521.200666434388,0,0,0,0,0,4,0,NaN,vertical,horizontal,vertical,vertical,horizontal,none
1c,2,100129,2,49,113,18,M,NA,variable,homogeneous,6,present,0.496020078659058,1,vertical,vertical,1,1.02352346420288,green,3,6,1052.5183575291,564.510859255183,547.481642470899,635.489140744817,704.475318678942,836.431882914531,956.993676208043,800.942742169714,1052.5183575291,564.510859255183,895.524681321058,363.568117085469,643.006323791957,399.057257830286,547.481642470899,635.489140744817,0,0,4,0,0,0,horizontal,vertical,vertical,horizontal,vertical,horizontal
1c,2,100129,2,50,114,18,M,NA,variable,homogeneous,3,absent,0.373938083648682,1,horizontal,horizontal,1,0.999994382858276,green,3,NaN,646.537169096228,396.34794493794,NaN,NaN,700.363562235235,834.728737630372,1053.09926866854,568.923317431687,646.537169096228,396.34794493794,0,0,0,0,0,0,0,0,4,NaN,NaN,NaN,vertical,horizontal,horizontal,none,none,none
1c,2,100129,2,51,115,18,M,NA,variable,homogeneous,4,present,0.40307092666626,1,horizontal,horizontal,1,1.05881708621979,green,4,2,551.535633479765,542.637481142314,1048.46436652023,657.362518857686,742.637481142314,848.464366520235,1048.46436652023,657.362518857686,857.362518857686,351.535633479765,551.535633479765,542.637481142314,0,0,0,0,0,0,0,4,NaN,NaN,vertical,vertical,horizontal,horizontal,none,none
1c,2,100129,2,52,116,18,M,NA,variable,homogeneous,5,present,0.480517864227295,1,vertical,vertical,1,0.870584435462952,red,1,4,891.383827134052,838.063008756786,586.139005173917,461.117046071168,891.383827134052,838.063008756786,1054.65053136242,586.654331158049,865.998856501143,353.688914296288,586.139005173917,461.117046071168,601.827779828472,760.476699717708,0,0,4,0,0,0,0,NaN,vertical,horizontal,horizontal,horizontal,vertical,none
1c,2,100129,2,53,117,18,M,NA,variable,homogeneous,4,absent,0.361309051513672,1,horizontal,horizontal,1,0.96470076084137,red,4,NaN,586.139005173917,461.117046071168,NaN,NaN,661.117046071168,813.860994826083,1013.86099482608,738.882953928832,938.882953928832,386.139005173917,586.139005173917,461.117046071168,0,0,0,0,0,0,0,4,NaN,NaN,vertical,horizontal,vertical,horizontal,none,none
1c,2,100129,2,54,118,18,M,NA,variable,homogeneous,5,absent,0.339930057525635,1,vertical,vertical,1,0.952936220169067,green,1,NaN,927.5,820.836477965032,NaN,NaN,927.5,820.836477965032,1049.42763818712,546.982518841471,826.654758133252,346.39691668109,567.045908301137,496.282156015671,629.371695378491,789.501930496736,0,0,4,0,0,0,0,NaN,vertical,horizontal,vertical,horizontal,horizontal,none
1c,2,100129,2,55,119,18,M,NA,variable,homogeneous,4,absent,0.430706024169922,0,vertical,horizontal,1,0.988229842185974,green,1,NaN,696.282156015671,832.954091698863,NaN,NaN,696.282156015671,832.954091698863,1032.95409169886,703.717843984329,903.717843984329,367.045908301137,567.045908301137,496.282156015671,0,0,0,0,4,0,0,0,NaN,NaN,vertical,vertical,vertical,horizontal,none,none
1c,2,100129,2,56,120,18,M,NA,variable,homogeneous,4,absent,0.360965013504028,0,horizontal,vertical,1,1.08234616756439,red,2,NaN,1034.72873763037,699.636437764765,NaN,NaN,700.363562235235,834.728737630372,1034.72873763037,699.636437764765,899.636437764765,365.271262369628,565.271262369628,500.363562235235,0,0,0,0,0,4,0,0,NaN,NaN,vertical,horizontal,vertical,vertical,none,none
1c,2,100129,2,57,121,18,M,NA,variable,homogeneous,4,absent,0.556004047393799,1,horizontal,horizontal,1,0.776468110084534,green,1,NaN,804.450363641507,854.96116226488,NaN,NaN,804.450363641507,854.96116226488,1054.96116226488,595.549636358493,795.549636358493,345.03883773512,545.03883773512,604.450363641507,0,0,0,0,4,0,0,0,NaN,NaN,horizontal,horizontal,vertical,vertical,none,none
1c,2,100129,2,58,122,18,M,NA,variable,homogeneous,6,absent,0.493811845779419,1,vertical,vertical,1,0.929407138824463,green,6,NaN,622.862115532956,783.431649086356,NaN,NaN,870.287525733335,845.121732464271,1047.42541020038,661.690083377915,977.137884467044,416.568350913644,729.712474266665,354.878267535729,552.574589799621,538.309916622085,622.862115532956,783.431649086356,0,0,0,0,0,4,horizontal,vertical,vertical,vertical,horizontal,vertical
1c,2,100129,2,59,123,18,M,NA,variable,homogeneous,3,present,0.445765018463135,1,horizontal,horizontal,1,0.694116325378418,green,2,1,857.362518857686,351.535633479765,986.495193912888,773.909581815937,986.495193912888,773.909581815937,857.362518857686,351.535633479765,556.142287229426,674.554784704298,0,0,0,0,0,0,0,4,0,NaN,NaN,NaN,horizontal,horizontal,horizontal,none,none,none
1c,2,100129,2,60,124,18,M,NA,variable,homogeneous,6,absent,0.498169898986816,1,horizontal,horizontal,1,0.952936220169067,green,2,NaN,1018.57766167904,731.334709102064,NaN,NaN,795.549636358493,854.96116226488,1018.57766167904,731.334709102064,1023.02802532055,476.373546837184,804.450363641507,345.03883773512,581.422338320961,468.665290897936,576.971974679454,723.626453162816,0,4,0,0,0,0,horizontal,horizontal,horizontal,horizontal,vertical,vertical
1c,2,100129,2,61,125,18,M,NA,variable,homogeneous,4,present,0.333384037017822,0,horizontal,vertical,1,1.05881708621979,green,2,3,989.501930496736,429.371695378491,629.371695378491,410.498069503264,970.628304621509,789.501930496736,989.501930496736,429.371695378491,629.371695378491,410.498069503264,610.498069503264,770.628304621509,0,0,0,0,0,4,0,0,NaN,NaN,vertical,horizontal,horizontal,vertical,none,none
1c,2,100129,2,62,126,18,M,NA,variable,homogeneous,3,absent,0.438410043716431,1,vertical,vertical,1,0.905878057479858,red,1,NaN,657.405809614959,811.404581001536,NaN,NaN,657.405809614959,811.404581001536,1054.37883281626,617.787900804752,688.215357568785,370.807518193712,0,0,0,0,0,0,4,0,0,NaN,NaN,NaN,vertical,vertical,horizontal,none,none,none
1c,2,100129,2,63,127,18,M,NA,variable,homogeneous,5,absent,0.511193037033081,1,vertical,vertical,1,0.799997191429138,red,1,NaN,668.665290897936,818.577661679039,NaN,NaN,668.665290897936,818.577661679039,967.295052392579,792.450942956807,1034.72873763037,500.363562235235,777.775285599347,345.970351986605,551.535633479765,542.637481142314,0,0,4,0,0,0,0,NaN,vertical,vertical,vertical,horizontal,vertical,none
1c,2,100129,2,64,128,18,M,NA,variable,homogeneous,6,present,0.461447954177856,1,horizontal,horizontal,1,0.988229842185974,red,1,2,853.017481158529,849.42763818712,1042.51941165526,678.799333565612,853.017481158529,849.42763818712,1042.51941165526,678.799333565612,989.501930496736,429.371695378491,746.982518841471,350.57236181288,557.480588344736,521.200666434388,610.498069503264,770.628304621509,4,0,0,0,0,0,horizontal,horizontal,horizontal,vertical,vertical,horizontal
1c,2,100129,3,1,129,18,M,NA,variable,homogeneous,5,absent,0.689892053604126,1,horizontal,horizontal,1,0.988229842185974,red,5,NaN,588.595418998464,742.594190385041,NaN,NaN,870.287525733335,845.121732464271,1054.84466088987,608.899371659138,887.215136548046,360.378381699593,599.057257830286,443.006323791957,588.595418998464,742.594190385041,0,0,0,0,0,0,4,NaN,horizontal,vertical,horizontal,horizontal,horizontal,none
1c,2,100129,3,2,130,18,M,NA,variable,homogeneous,6,absent,0.493157863616943,1,horizontal,horizontal,1,1.07058162689209,red,1,NaN,891.383827134052,838.063008756786,NaN,NaN,891.383827134052,838.063008756786,1051.86052685176,639.890788585259,960.476699717708,401.827779828472,708.616172865948,361.936991243214,548.13947314824,560.109211414741,639.523300282292,798.172220171528,4,0,0,0,0,0,horizontal,vertical,horizontal,vertical,horizontal,horizontal
1c,2,100129,3,3,131,18,M,NA,variable,homogeneous,6,present,0.51297402381897,1,vertical,vertical,1,0.682351784706116,red,6,2,591.116228706307,746.261991269517,1031.10848569435,707.767656743878,822.224714400653,854.029648013395,1031.10848569435,707.767656743878,1008.88377129369,453.738008730483,777.775285599347,345.970351986605,568.891514305654,492.232343256122,591.116228706307,746.261991269517,0,0,0,0,0,4,vertical,horizontal,horizontal,horizontal,vertical,vertical
1c,2,100129,3,4,132,18,M,NA,variable,homogeneous,5,present,0.519714832305908,1,vertical,vertical,1,0.611764540672302,green,1,2,742.637481142314,848.464366520235,1018.57766167904,731.334709102064,742.637481142314,848.464366520235,1018.57766167904,731.334709102064,992.450942956807,432.704947607421,700.363562235235,365.271262369628,545.970351986605,622.224714400653,0,0,4,0,0,0,0,NaN,vertical,vertical,vertical,vertical,vertical,none
1c,2,100129,3,5,133,18,M,NA,variable,homogeneous,5,absent,0.379125118255615,1,vertical,vertical,1,0.858819894790649,green,1,NaN,768.923317431687,853.099268668537,NaN,NaN,768.923317431687,853.099268668537,1031.10848569435,707.767656743878,973.909581815937,413.504806087112,676.373546837184,376.971974679454,549.685068220846,648.656293821019,0,0,4,0,0,0,0,NaN,vertical,horizontal,vertical,vertical,vertical,none
1c,2,100129,3,6,134,18,M,NA,variable,homogeneous,5,absent,0.527286052703857,1,vertical,vertical,1,0.799997191429138,red,1,NaN,692.232343256122,831.108485694346,NaN,NaN,692.232343256122,831.108485694346,986.495193912888,773.909581815937,1023.02802532055,476.373546837184,751.343706178981,349.685068220846,546.900731331463,568.923317431687,0,0,4,0,0,0,0,NaN,vertical,vertical,horizontal,vertical,horizontal,none
1c,2,100129,3,7,135,18,M,NA,variable,homogeneous,6,present,0.430104970932007,1,horizontal,horizontal,1,0.823526272773743,green,6,5,661.117046071168,813.860994826083,545.349468637584,586.654331158049,915.767577433584,827.206663668034,1054.65053136242,613.345668841951,938.882953928832,386.139005173917,684.232422566416,372.793336331966,545.349468637584,586.654331158049,661.117046071168,813.860994826083,0,0,0,0,0,4,vertical,horizontal,horizontal,vertical,horizontal,horizontal
1c,2,100129,3,8,136,18,M,NA,variable,homogeneous,5,present,0.532526016235352,1,vertical,vertical,1,0.870584435462952,red,4,3,751.343706178981,349.685068220846,1023.02802532055,476.373546837184,692.232343256122,831.108485694346,986.495193912888,773.909581815937,1023.02802532055,476.373546837184,751.343706178981,349.685068220846,546.900731331463,568.923317431687,0,0,0,0,0,4,0,NaN,horizontal,vertical,vertical,vertical,vertical,none
1c,2,100129,3,9,137,18,M,NA,variable,homogeneous,5,present,0.583160877227783,1,horizontal,horizontal,1,0.6,green,4,3,604.658667004661,436.089159529932,895.524681321058,363.568117085469,861.690083377915,847.425410200379,1054.37883281626,617.787900804752,895.524681321058,363.568117085469,604.658667004661,436.089159529932,583.747735480111,735.129412379467,0,0,0,0,0,4,0,NaN,horizontal,horizontal,horizontal,horizontal,horizontal,none
1c,2,100129,3,10,138,18,M,NA,variable,homogeneous,4,absent,0.43179988861084,1,horizontal,horizontal,1,0.635293622016907,red,3,NaN,738.309916622085,352.574589799621,NaN,NaN,861.690083377915,847.425410200379,1047.42541020038,538.309916622085,738.309916622085,352.574589799621,552.574589799621,661.690083377915,0,0,0,0,0,0,4,0,NaN,NaN,vertical,vertical,horizontal,vertical,none,none
1c,2,100129,3,11,139,18,M,NA,variable,homogeneous,6,present,0.557263135910034,1,vertical,vertical,1,0.847055354118347,green,4,6,927.5,379.163522034968,545,600,672.5,820.836477965032,927.5,820.836477965032,1055,600,927.5,379.163522034968,672.5,379.163522034968,545,600,0,0,0,4,0,0,vertical,vertical,vertical,vertical,horizontal,vertical
1c,2,100129,3,12,140,18,M,NA,variable,homogeneous,3,absent,0.51510214805603,1,vertical,vertical,1,0.917642598152161,green,3,NaN,557.480588344736,521.200666434388,NaN,NaN,853.017481158529,849.42763818712,989.501930496736,429.371695378491,557.480588344736,521.200666434388,0,0,0,0,0,0,0,0,4,NaN,NaN,NaN,vertical,horizontal,vertical,none,none,none
1c,2,100129,3,13,141,18,M,NA,variable,homogeneous,4,present,0.535887956619263,1,horizontal,horizontal,1,0.717645406723022,red,2,3,1054.84466088987,591.100628340862,791.100628340862,345.155339110131,808.899371659138,854.844660889869,1054.84466088987,591.100628340862,791.100628340862,345.155339110131,545.155339110131,608.899371659138,0,0,0,0,0,4,0,0,NaN,NaN,vertical,horizontal,vertical,vertical,none,none
1c,2,100129,3,14,142,18,M,NA,variable,homogeneous,3,present,0.402885913848877,1,vertical,vertical,1,0.799997191429138,red,2,1,870.287525733335,354.878267535729,977.137884467044,783.431649086356,977.137884467044,783.431649086356,870.287525733335,354.878267535729,552.574589799621,661.690083377915,0,0,0,0,0,0,0,4,0,NaN,NaN,NaN,vertical,vertical,vertical,none,none,none
1c,2,100129,3,15,143,18,M,NA,variable,homogeneous,3,absent,0.474684953689575,0,vertical,horizontal,1,0.788232650756836,red,3,NaN,550.57236181288,653.017481158529,NaN,NaN,970.628304621509,789.501930496736,878.799333565612,357.480588344736,550.57236181288,653.017481158529,0,0,0,0,0,0,0,0,4,NaN,NaN,NaN,vertical,vertical,vertical,none,none,none
1c,2,100129,3,16,144,18,M,NA,variable,homogeneous,4,present,0.493185043334961,1,vertical,vertical,1,1.03528800487518,red,2,3,1020.83647796503,727.5,927.5,379.163522034968,672.5,820.836477965032,1020.83647796503,727.5,927.5,379.163522034968,579.163522034968,472.5,0,0,0,0,0,4,0,0,NaN,NaN,vertical,vertical,vertical,vertical,none,none
1c,2,100129,3,17,145,18,M,NA,variable,homogeneous,4,present,0.470855951309204,1,vertical,vertical,1,0.788232650756836,green,4,2,545.349468637584,613.345668841951,1054.65053136242,586.654331158049,813.345668841951,854.650531362416,1054.65053136242,586.654331158049,786.654331158049,345.349468637584,545.349468637584,613.345668841951,0,0,0,0,0,0,0,4,NaN,NaN,vertical,horizontal,horizontal,vertical,none,none
1c,2,100129,3,18,146,18,M,NA,variable,homogeneous,4,present,0.499761819839478,1,vertical,vertical,1,0.752939028739929,green,3,1,942.594190385041,388.595418998464,657.405809614959,811.404581001536,657.405809614959,811.404581001536,1011.40458100154,742.594190385041,942.594190385041,388.595418998464,588.595418998464,457.40580961496,0,0,0,0,0,0,4,0,NaN,NaN,vertical,horizontal,vertical,horizontal,none,none
1c,2,100129,3,19,147,18,M,NA,variable,homogeneous,4,absent,0.563154935836792,1,horizontal,horizontal,1,0.870584435462952,green,4,NaN,546.39691668109,626.654758133252,NaN,NaN,826.654758133252,853.60308331891,1053.60308331891,573.345241866748,773.345241866748,346.39691668109,546.39691668109,626.654758133252,0,0,0,0,0,0,0,4,NaN,NaN,horizontal,horizontal,vertical,horizontal,none,none
1c,2,100129,3,20,148,18,M,NA,variable,homogeneous,6,absent,0.569689035415649,1,horizontal,horizontal,1,0.764703569412231,red,1,NaN,927.5,820.836477965032,NaN,NaN,927.5,820.836477965032,1055,600,927.5,379.163522034968,672.5,379.163522034968,545,600,672.5,820.836477965032,4,0,0,0,0,0,horizontal,vertical,horizontal,vertical,vertical,vertical
1c,2,100129,3,21,149,18,M,NA,variable,homogeneous,4,present,0.424018859863281,1,horizontal,horizontal,1,0.929407138824463,green,1,2,891.383827134052,838.063008756786,1038.06300875679,508.616172865948,891.383827134052,838.063008756786,1038.06300875679,508.616172865948,708.616172865948,361.936991243214,561.936991243214,691.383827134052,0,0,0,0,4,0,0,0,NaN,NaN,horizontal,vertical,horizontal,vertical,none,none
1c,2,100129,3,22,150,18,M,NA,variable,homogeneous,4,absent,0.441033124923706,1,horizontal,horizontal,1,0.611764540672302,green,4,NaN,596.34794493794,753.462830903772,NaN,NaN,953.462830903772,803.65205506206,1003.65205506206,446.537169096228,646.537169096228,396.34794493794,596.34794493794,753.462830903772,0,0,0,0,0,0,0,4,NaN,NaN,horizontal,horizontal,horizontal,horizontal,none,none
1c,2,100129,3,23,151,18,M,NA,variable,homogeneous,3,present,0.487154006958008,1,horizontal,horizontal,1,0.658822703361511,red,1,3,899.636437764765,834.728737630372,546.900731331463,568.923317431687,899.636437764765,834.728737630372,953.462830903772,396.34794493794,546.900731331463,568.923317431687,0,0,0,0,0,0,4,0,0,NaN,NaN,NaN,horizontal,horizontal,horizontal,none,none,none
1c,2,100129,3,24,152,18,M,NA,variable,homogeneous,5,present,0.442008972167969,1,vertical,vertical,1,0.647058162689209,green,3,5,995.341332995339,436.089159529932,545.621167183745,617.787900804752,738.309916622085,847.425410200379,1016.25226451989,735.129412379467,995.341332995339,436.089159529932,704.475318678942,363.568117085469,545.621167183745,617.787900804752,0,0,0,0,4,0,0,NaN,horizontal,vertical,vertical,horizontal,horizontal,none
1c,2,100129,3,25,153,18,M,NA,variable,homogeneous,6,present,0.612290859222412,1,horizontal,horizontal,1,1.07058162689209,green,2,3,1054.37883281626,617.787900804752,942.594190385041,388.595418998464,911.784642431215,829.192481806288,1054.37883281626,617.787900804752,942.594190385041,388.595418998464,688.215357568785,370.807518193712,545.621167183745,582.212099195248,657.405809614959,811.404581001536,0,4,0,0,0,0,horizontal,horizontal,horizontal,vertical,vertical,horizontal
1c,2,100129,3,26,154,18,M,NA,variable,homogeneous,6,absent,0.470141887664795,1,vertical,vertical,1,1.07058162689209,red,6,NaN,596.34794493794,753.462830903772,NaN,NaN,831.076682568313,853.099268668537,1034.72873763037,699.636437764765,1003.65205506206,446.537169096228,768.923317431687,346.900731331463,565.271262369628,500.363562235235,596.34794493794,753.462830903772,0,0,0,0,0,4,vertical,horizontal,vertical,vertical,vertical,vertical
1c,2,100129,3,27,155,18,M,NA,variable,homogeneous,5,present,0.521519899368286,1,horizontal,horizontal,1,1.08234616756439,green,3,2,967.295052392579,407.549057043193,1034.72873763037,699.636437764765,777.775285599347,854.029648013395,1034.72873763037,699.636437764765,967.295052392579,407.549057043193,668.665290897936,381.422338320961,551.535633479765,657.362518857686,0,0,0,0,4,0,0,NaN,vertical,vertical,horizontal,horizontal,vertical,none
1c,2,100129,3,28,156,18,M,NA,variable,homogeneous,4,absent,0.422183990478516,1,vertical,vertical,1,0.905878057479858,green,1,NaN,721.200666434388,842.519411655264,NaN,NaN,721.200666434388,842.519411655264,1042.51941165526,678.799333565612,878.799333565612,357.480588344736,557.480588344736,521.200666434388,0,0,0,0,4,0,0,0,NaN,NaN,vertical,vertical,horizontal,vertical,none,none
1c,2,100129,3,29,157,18,M,NA,variable,homogeneous,6,absent,0.560707092285156,1,vertical,vertical,1,0.682351784706116,green,5,NaN,619.68777079743,419.68777079743,NaN,NaN,734.001143498857,846.311085703712,980.31222920257,780.31222920257,1046.31108570371,534.001143498857,865.998856501143,353.688914296288,619.68777079743,419.68777079743,553.688914296288,665.998856501143,0,0,0,0,4,0,horizontal,horizontal,vertical,horizontal,vertical,horizontal
1c,2,100129,3,30,158,18,M,NA,variable,homogeneous,6,present,0.686336994171143,1,horizontal,horizontal,1,0.717645406723022,red,2,3,931.334709102064,818.577661679039,1054.96116226488,595.549636358493,676.373546837184,823.028025320546,931.334709102064,818.577661679039,1054.96116226488,595.549636358493,923.626453162816,376.971974679454,668.665290897936,381.422338320961,545.03883773512,604.450363641507,0,4,0,0,0,0,vertical,horizontal,horizontal,vertical,horizontal,vertical
1c,2,100129,3,31,159,18,M,NA,variable,homogeneous,3,present,0.567621946334839,1,horizontal,horizontal,1,0.976465301513672,red,3,1,604.658667004661,436.089159529932,755.719714694933,851.125977018113,755.719714694933,851.125977018113,1039.62161830041,512.784863451954,604.658667004661,436.089159529932,0,0,0,0,0,0,0,0,4,NaN,NaN,NaN,horizontal,vertical,horizontal,none,none,none
1c,2,100129,3,32,160,18,M,NA,variable,homogeneous,4,absent,0.472306966781616,1,vertical,vertical,1,0.647058162689209,green,1,NaN,808.899371659138,854.844660889869,NaN,NaN,808.899371659138,854.844660889869,1054.84466088987,591.100628340862,791.100628340862,345.155339110131,545.155339110131,608.899371659138,0,0,0,0,4,0,0,0,NaN,NaN,vertical,vertical,vertical,horizontal,none,none
1c,2,100129,3,33,161,18,M,NA,variable,homogeneous,4,absent,0.640496969223022,1,vertical,vertical,1,0.717645406723022,red,2,NaN,1016.25226451989,464.870587620533,NaN,NaN,935.129412379467,816.252264519889,1016.25226451989,464.870587620533,664.870587620533,383.747735480111,583.747735480111,735.129412379467,0,0,0,0,0,4,0,0,NaN,NaN,vertical,vertical,vertical,horizontal,none,none
1c,2,100129,3,34,162,18,M,NA,variable,homogeneous,4,absent,0.50388503074646,1,vertical,vertical,1,0.929407138824463,red,2,NaN,1047.42541020038,661.690083377915,NaN,NaN,738.309916622085,847.425410200379,1047.42541020038,661.690083377915,861.690083377915,352.574589799621,552.574589799621,538.309916622085,0,0,0,0,0,4,0,0,NaN,NaN,horizontal,vertical,horizontal,horizontal,none,none
1c,2,100129,3,35,163,18,M,NA,variable,homogeneous,3,present,0.349261999130249,0,vertical,horizontal,1,0.752939028739929,green,3,1,607.549057043193,432.704947607421,751.343706178981,850.314931779154,751.343706178981,850.314931779154,1041.10723677783,516.980120613425,607.549057043193,432.704947607421,0,0,0,0,0,0,0,0,4,NaN,NaN,NaN,vertical,horizontal,vertical,none,none,none
1c,2,100129,3,36,164,18,M,NA,variable,homogeneous,6,absent,0.554769039154053,1,vertical,vertical,1,0.929407138824463,green,6,NaN,643.006323791957,800.942742169714,NaN,NaN,895.524681321058,836.431882914531,1052.5183575291,635.489140744817,956.993676208043,399.057257830286,704.475318678942,363.568117085469,547.481642470899,564.510859255183,643.006323791957,800.942742169714,0,0,0,0,0,4,horizontal,horizontal,horizontal,horizontal,horizontal,vertical
1c,2,100129,3,37,165,18,M,NA,variable,homogeneous,3,absent,0.401987075805664,1,vertical,vertical,1,1.01175892353058,green,2,NaN,1051.12597701811,644.280285305067,NaN,NaN,636.089159529932,795.341332995339,1051.12597701811,644.280285305067,712.784863451954,360.378381699593,0,0,0,0,0,0,0,4,0,NaN,NaN,NaN,horizontal,vertical,horizontal,none,none,none
1c,2,100129,3,38,166,18,M,NA,variable,homogeneous,5,absent,0.4289870262146,1,horizontal,horizontal,1,0.929407138824463,green,2,NaN,1003.65205506206,753.462830903772,NaN,NaN,716.980120613425,841.107236777826,1003.65205506206,753.462830903772,1008.88377129369,453.738008730483,725.445215295702,356.142287229426,545.03883773512,595.549636358493,0,0,0,4,0,0,0,NaN,horizontal,horizontal,vertical,horizontal,horizontal,none
1c,2,100129,3,39,167,18,M,NA,variable,homogeneous,3,present,0.518431901931763,1,horizontal,horizontal,1,1.03528800487518,green,2,1,1034.72873763037,699.636437764765,596.34794493794,753.462830903772,596.34794493794,753.462830903772,1034.72873763037,699.636437764765,768.923317431687,346.900731331463,0,0,0,0,0,0,0,4,0,NaN,NaN,NaN,horizontal,horizontal,vertical,none,none,none
1c,2,100129,3,40,168,18,M,NA,variable,homogeneous,5,absent,0.50220513343811,1,horizontal,horizontal,1,1.04705254554749,red,3,NaN,1031.10848569435,492.232343256122,NaN,NaN,676.373546837184,823.028025320546,973.909581815937,786.495193912888,1031.10848569435,492.232343256122,768.923317431687,346.900731331463,549.685068220846,551.343706178981,0,0,0,0,4,0,0,NaN,vertical,horizontal,horizontal,horizontal,horizontal,none
1c,2,100129,3,41,169,18,M,NA,variable,homogeneous,6,present,0.564357995986938,1,horizontal,horizontal,1,0.999994382858276,red,1,2,708.616172865948,838.063008756786,960.476699717708,798.172220171528,708.616172865948,838.063008756786,960.476699717708,798.172220171528,1051.86052685176,560.109211414741,891.383827134052,361.936991243214,639.523300282292,401.827779828472,548.13947314824,639.890788585259,4,0,0,0,0,0,horizontal,horizontal,horizontal,vertical,vertical,vertical
1c,2,100129,3,42,170,18,M,NA,variable,homogeneous,3,absent,0.658867835998535,1,horizontal,horizontal,1,0.752939028739929,red,3,NaN,622.862115532956,416.568350913644,NaN,NaN,729.712474266665,845.121732464271,1047.42541020038,538.309916622085,622.862115532956,416.568350913644,0,0,0,0,0,0,0,0,4,NaN,NaN,NaN,horizontal,vertical,horizontal,none,none,none
1c,2,100129,3,43,171,18,M,NA,variable,homogeneous,5,absent,0.399174213409424,1,vertical,vertical,1,0.741174488067627,red,2,NaN,1054.0296480134,622.224714400653,NaN,NaN,857.362518857686,848.464366520235,1054.0296480134,622.224714400653,899.636437764765,365.271262369628,607.549057043193,432.704947607421,581.422338320961,731.334709102064,0,0,0,4,0,0,0,NaN,vertical,vertical,horizontal,horizontal,vertical,none
1c,2,100129,3,44,172,18,M,NA,variable,homogeneous,5,present,0.401623010635376,0,horizontal,vertical,1,0.905878057479858,red,2,3,1051.86052685176,639.890788585259,915.767577433584,372.793336331966,839.890788585259,851.86052685176,1051.86052685176,639.890788585259,915.767577433584,372.793336331966,619.68777079743,419.68777079743,572.793336331966,715.767577433584,0,0,0,4,0,0,0,NaN,vertical,horizontal,horizontal,vertical,horizontal,none
1c,2,100129,3,45,173,18,M,NA,variable,homogeneous,4,present,0.44216513633728,1,vertical,vertical,1,0.611764540672302,red,3,1,891.383827134052,361.936991243214,708.616172865948,838.063008756786,708.616172865948,838.063008756786,1038.06300875679,691.383827134052,891.383827134052,361.936991243214,561.936991243214,508.616172865948,0,0,0,0,0,0,4,0,NaN,NaN,vertical,vertical,vertical,vertical,none,none
1c,2,100129,3,46,174,18,M,NA,variable,homogeneous,4,present,0.397324085235596,1,horizontal,horizontal,1,0.717645406723022,red,1,4,626.090418184063,786.495193912888,613.504806087112,426.090418184063,626.090418184063,786.495193912888,986.495193912888,773.909581815937,973.909581815937,413.504806087112,613.504806087112,426.090418184063,0,0,0,0,4,0,0,0,NaN,NaN,horizontal,horizontal,horizontal,horizontal,none,none
1c,2,100129,3,47,175,18,M,NA,variable,homogeneous,4,absent,0.464323043823242,1,horizontal,horizontal,1,0.941171679496765,red,1,NaN,813.345668841951,854.650531362416,NaN,NaN,813.345668841951,854.650531362416,1054.65053136242,586.654331158049,786.654331158049,345.349468637584,545.349468637584,613.345668841951,0,0,0,0,4,0,0,0,NaN,NaN,horizontal,horizontal,horizontal,horizontal,none,none
1c,2,100129,3,48,176,18,M,NA,variable,homogeneous,6,present,0.432348966598511,0,vertical,horizontal,1,0.752939028739929,green,1,2,716.980120613425,841.107236777826,967.295052392579,792.450942956807,716.980120613425,841.107236777826,967.295052392579,792.450942956807,1050.31493177915,551.343706178981,883.019879386575,358.892763222174,632.704947607421,407.549057043193,549.685068220846,648.656293821019,4,0,0,0,0,0,vertical,horizontal,horizontal,vertical,horizontal,vertical
1c,2,100129,3,49,177,18,M,NA,variable,homogeneous,3,present,0.378618955612183,1,horizontal,horizontal,1,0.858819894790649,green,2,1,817.787900804752,345.621167183745,1011.40458100154,742.594190385041,1011.40458100154,742.594190385041,817.787900804752,345.621167183745,570.807518193712,711.784642431215,0,0,0,0,0,0,0,4,0,NaN,NaN,NaN,horizontal,horizontal,horizontal,none,none,none
1c,2,100129,3,50,178,18,M,NA,variable,homogeneous,3,present,0.351376056671143,1,vertical,vertical,1,1.04705254554749,green,1,3,831.076682568313,853.099268668537,565.271262369628,500.363562235235,831.076682568313,853.099268668537,1003.65205506206,446.537169096228,565.271262369628,500.363562235235,0,0,0,0,0,0,4,0,0,NaN,NaN,NaN,vertical,vertical,vertical,none,none,none
1c,2,100129,3,51,179,18,M,NA,variable,homogeneous,3,absent,0.584101915359497,1,horizontal,horizontal,1,0.694116325378418,red,1,NaN,586.139005173917,738.882953928832,NaN,NaN,586.139005173917,738.882953928832,1027.20666366803,715.767577433584,786.654331158049,345.349468637584,0,0,0,0,0,0,4,0,0,NaN,NaN,NaN,horizontal,horizontal,vertical,none,none,none
1c,2,100129,3,52,180,18,M,NA,variable,homogeneous,5,present,0.630806922912598,1,vertical,vertical,1,0.941171679496765,red,3,2,826.654758133252,346.39691668109,1049.42763818712,546.982518841471,927.5,820.836477965032,1049.42763818712,546.982518841471,826.654758133252,346.39691668109,567.045908301137,496.282156015671,629.371695378491,789.501930496736,0,0,0,0,4,0,0,NaN,vertical,horizontal,vertical,horizontal,horizontal,none
1c,2,100129,3,53,181,18,M,NA,variable,homogeneous,6,absent,0.501124858856201,1,horizontal,horizontal,1,1.07058162689209,green,4,NaN,895.524681321058,363.568117085469,NaN,NaN,704.475318678942,836.431882914531,956.993676208043,800.942742169714,1052.5183575291,564.510859255183,895.524681321058,363.568117085469,643.006323791957,399.057257830286,547.481642470899,635.489140744817,0,0,0,4,0,0,vertical,vertical,vertical,horizontal,vertical,horizontal
1c,2,100129,3,54,182,18,M,NA,variable,homogeneous,3,present,0.656982898712158,1,vertical,vertical,1,0.682351784706116,red,1,3,653.738008730483,808.883771293693,692.232343256122,368.891514305654,653.738008730483,808.883771293693,1054.0296480134,622.224714400653,692.232343256122,368.891514305654,0,0,0,0,0,0,4,0,0,NaN,NaN,NaN,vertical,horizontal,horizontal,none,none,none
1c,2,100129,3,55,183,18,M,NA,variable,homogeneous,6,absent,0.535426139831543,1,horizontal,horizontal,1,0.870584435462952,green,2,NaN,1054.0296480134,622.224714400653,NaN,NaN,907.767656743878,831.108485694346,1054.0296480134,622.224714400653,946.261991269517,391.116228706307,692.232343256122,368.891514305654,545.970351986605,577.775285599347,653.738008730483,808.883771293693,0,4,0,0,0,0,vertical,horizontal,horizontal,horizontal,horizontal,horizontal
1c,2,100129,3,56,184,18,M,NA,variable,homogeneous,5,present,0.618685007095337,1,horizontal,horizontal,1,1.02352346420288,red,4,5,729.712474266665,354.878267535729,545.155339110131,591.100628340862,712.784863451954,839.621618300407,1000.94274216971,756.993676208043,1011.40458100154,457.40580961496,729.712474266665,354.878267535729,545.155339110131,591.100628340862,0,0,0,0,0,4,0,NaN,vertical,horizontal,horizontal,horizontal,horizontal,none
1c,2,100129,3,57,185,18,M,NA,variable,homogeneous,6,present,0.551972150802612,1,vertical,vertical,1,0.835290813446045,red,1,3,688.215357568785,829.192481806288,1054.37883281626,582.212099195248,688.215357568785,829.192481806288,942.594190385041,811.404581001536,1054.37883281626,582.212099195248,911.784642431215,370.807518193712,657.405809614959,388.595418998464,545.621167183745,617.787900804752,4,0,0,0,0,0,vertical,vertical,horizontal,vertical,horizontal,horizontal
1c,2,100129,3,58,186,18,M,NA,variable,homogeneous,3,absent,0.584217071533203,0,horizontal,vertical,1,0.635293622016907,green,2,NaN,822.224714400653,345.970351986605,NaN,NaN,1008.88377129369,746.261991269517,822.224714400653,345.970351986605,568.891514305654,707.767656743878,0,0,0,0,0,0,0,4,0,NaN,NaN,NaN,vertical,horizontal,horizontal,none,none,none
1c,2,100129,3,59,187,18,M,NA,variable,homogeneous,5,absent,0.537118911743164,1,vertical,vertical,1,1.05881708621979,green,5,NaN,588.595418998464,742.594190385041,NaN,NaN,870.287525733335,845.121732464271,1054.84466088987,608.899371659138,887.215136548046,360.378381699593,599.057257830286,443.006323791957,588.595418998464,742.594190385041,0,0,0,0,0,0,4,NaN,horizontal,horizontal,horizontal,horizontal,vertical,none
1c,2,100129,3,60,188,18,M,NA,variable,homogeneous,4,present,0.42684006690979,1,horizontal,horizontal,1,0.952936220169067,green,3,1,977.137884467044,416.568350913644,622.862115532956,783.431649086356,622.862115532956,783.431649086356,983.431649086356,777.137884467044,977.137884467044,416.568350913644,616.568350913644,422.862115532956,0,0,0,0,0,0,4,0,NaN,NaN,horizontal,horizontal,horizontal,horizontal,none,none
1c,2,100129,3,61,189,18,M,NA,variable,homogeneous,5,absent,0.509572982788086,1,horizontal,horizontal,1,0.905878057479858,green,4,NaN,760.109211414741,348.13947314824,NaN,NaN,684.232422566416,827.206663668034,980.31222920257,780.31222920257,1027.20666366803,484.232422566416,760.109211414741,348.13947314824,548.13947314824,560.109211414741,0,0,0,0,0,4,0,NaN,vertical,vertical,horizontal,horizontal,vertical,none
1c,2,100129,3,62,190,18,M,NA,variable,homogeneous,6,absent,0.452914953231812,1,vertical,vertical,1,0.858819894790649,red,6,NaN,545.03883773512,604.450363641507,NaN,NaN,676.373546837184,823.028025320546,931.334709102064,818.577661679039,1054.96116226488,595.549636358493,923.626453162816,376.971974679454,668.665290897936,381.422338320961,545.03883773512,604.450363641507,0,0,0,0,0,4,vertical,vertical,horizontal,horizontal,horizontal,vertical
1c,2,100129,3,63,191,18,M,NA,variable,homogeneous,3,absent,0.49943995475769,1,vertical,vertical,1,0.847055354118347,red,1,NaN,861.690083377915,847.425410200379,NaN,NaN,861.690083377915,847.425410200379,983.431649086356,422.862115532956,554.878267535729,529.712474266665,0,0,0,0,0,0,4,0,0,NaN,NaN,NaN,vertical,horizontal,vertical,none,none,none
1c,2,100129,3,64,192,18,M,NA,variable,homogeneous,3,absent,0.406568050384521,1,horizontal,horizontal,1,0.858819894790649,green,1,NaN,622.862115532956,783.431649086356,NaN,NaN,622.862115532956,783.431649086356,1047.42541020038,661.690083377915,729.712474266665,354.878267535729,0,0,0,0,0,0,4,0,0,NaN,NaN,NaN,horizontal,horizontal,vertical,none,none,none
1c,2,100129,4,1,193,18,M,NA,variable,homogeneous,6,present,0.658806085586548,1,horizontal,horizontal,1,1.05881708621979,green,5,3,554.878267535729,529.712474266665,983.431649086356,422.862115532956,861.690083377915,847.425410200379,1045.12173246427,670.287525733335,983.431649086356,422.862115532956,738.309916622085,352.574589799621,554.878267535729,529.712474266665,616.568350913644,777.137884467044,0,0,0,0,4,0,vertical,horizontal,horizontal,vertical,horizontal,horizontal
1c,2,100129,4,2,194,18,M,NA,variable,homogeneous,6,present,0.521430969238281,1,horizontal,horizontal,1,0.858819894790649,green,3,5,1054.0296480134,577.775285599347,653.738008730483,391.116228706307,692.232343256122,831.108485694346,946.261991269517,808.883771293693,1054.0296480134,577.775285599347,907.767656743878,368.891514305654,653.738008730483,391.116228706307,545.970351986605,622.224714400653,0,0,4,0,0,0,horizontal,vertical,horizontal,vertical,horizontal,vertical
1c,2,100129,4,3,195,18,M,NA,variable,homogeneous,3,absent,0.579259157180786,1,vertical,vertical,1,0.96470076084137,red,1,NaN,653.738008730483,808.883771293693,NaN,NaN,653.738008730483,808.883771293693,1054.0296480134,622.224714400653,692.232343256122,368.891514305654,0,0,0,0,0,0,4,0,0,NaN,NaN,NaN,vertical,horizontal,horizontal,none,none,none
1c,2,100129,4,4,196,18,M,NA,variable,homogeneous,6,absent,0.467108964920044,1,vertical,vertical,1,0.788232650756836,red,6,NaN,554.878267535729,670.287525733335,NaN,NaN,738.309916622085,847.425410200379,983.431649086356,777.137884467044,1045.12173246427,529.712474266665,861.690083377915,352.574589799621,616.568350913644,422.862115532956,554.878267535729,670.287525733335,0,0,0,0,0,4,horizontal,vertical,vertical,vertical,horizontal,vertical
1c,2,100129,4,5,197,18,M,NA,variable,homogeneous,4,present,0.464560985565186,1,horizontal,horizontal,1,0.81176173210144,red,3,4,865.998856501143,353.688914296288,553.688914296288,534.001143498857,734.001143498857,846.311085703712,1046.31108570371,665.998856501143,865.998856501143,353.688914296288,553.688914296288,534.001143498857,0,0,0,0,0,0,4,0,NaN,NaN,horizontal,horizontal,horizontal,vertical,none,none
1c,2,100129,4,6,198,18,M,NA,variable,homogeneous,3,present,0.550554037094116,1,horizontal,horizontal,1,0.835290813446045,green,1,3,992.450942956807,767.295052392579,558.892763222174,683.019879386575,992.450942956807,767.295052392579,848.656293821019,349.685068220846,558.892763222174,683.019879386575,0,0,0,0,0,0,4,0,0,NaN,NaN,NaN,horizontal,vertical,vertical,none,none,none
1c,2,100129,4,7,199,18,M,NA,variable,homogeneous,4,present,0.475440979003906,1,horizontal,horizontal,1,1.08234616756439,red,1,2,878.799333565612,842.519411655264,1042.51941165526,521.200666434388,878.799333565612,842.519411655264,1042.51941165526,521.200666434388,721.200666434388,357.480588344736,557.480588344736,678.799333565612,0,0,0,0,4,0,0,0,NaN,NaN,horizontal,vertical,vertical,horizontal,none,none
1c,2,100129,4,8,200,18,M,NA,variable,homogeneous,4,present,0.385761022567749,1,vertical,vertical,1,0.823526272773743,green,3,4,746.982518841471,350.57236181288,550.57236181288,653.017481158529,853.017481158529,849.42763818712,1049.42763818712,546.982518841471,746.982518841471,350.57236181288,550.57236181288,653.017481158529,0,0,0,0,0,0,4,0,NaN,NaN,vertical,vertical,vertical,horizontal,none,none
1c,2,100129,4,9,201,18,M,NA,variable,homogeneous,3,absent,0.421620845794678,1,horizontal,horizontal,1,0.999994382858276,red,3,NaN,604.658667004661,436.089159529932,NaN,NaN,755.719714694933,851.125977018113,1039.62161830041,512.784863451954,604.658667004661,436.089159529932,0,0,0,0,0,0,0,0,4,NaN,NaN,NaN,vertical,vertical,horizontal,none,none,none
1c,2,100129,4,10,202,18,M,NA,variable,homogeneous,5,absent,0.406387090682983,1,vertical,vertical,1,0.623529081344604,green,1,NaN,895.524681321058,836.431882914531,NaN,NaN,895.524681321058,836.431882914531,1054.37883281626,582.212099195248,861.690083377915,352.574589799621,583.747735480111,464.870587620533,604.658667004661,763.910840470068,0,0,4,0,0,0,0,NaN,vertical,horizontal,horizontal,horizontal,horizontal,none
1c,2,100129,4,11,203,18,M,NA,variable,homogeneous,4,absent,0.374011039733887,0,vertical,horizontal,1,0.96470076084137,red,1,NaN,734.001143498857,846.311085703712,NaN,NaN,734.001143498857,846.311085703712,1046.31108570371,665.998856501143,865.998856501143,353.688914296288,553.688914296288,534.001143498857,0,0,0,0,4,0,0,0,NaN,NaN,vertical,horizontal,horizontal,vertical,none,none
1c,2,100129,4,12,204,18,M,NA,variable,homogeneous,6,absent,0.38277792930603,1,horizontal,horizontal,1,1.07058162689209,green,1,NaN,822.224714400653,854.029648013395,NaN,NaN,822.224714400653,854.029648013395,1031.10848569435,707.767656743878,1008.88377129369,453.738008730483,777.775285599347,345.970351986605,568.891514305654,492.232343256122,591.116228706307,746.261991269517,4,0,0,0,0,0,horizontal,vertical,horizontal,vertical,horizontal,vertical
1c,2,100129,4,13,205,18,M,NA,variable,homogeneous,5,present,0.416280031204224,1,vertical,vertical,1,0.882348976135254,green,3,2,800,345,1042.51941165526,521.200666434388,949.885239334581,806.299333565612,1042.51941165526,521.200666434388,800,345,557.480588344736,521.200666434388,650.114760665419,806.299333565612,0,0,0,0,4,0,0,NaN,horizontal,vertical,vertical,horizontal,horizontal,none
1c,2,100129,4,14,206,18,M,NA,variable,homogeneous,4,absent,0.431648015975952,1,horizontal,horizontal,1,0.952936220169067,green,2,NaN,1025.15163617903,719.715248510402,NaN,NaN,680.284751489598,825.151636179026,1025.15163617903,719.715248510402,919.715248510402,374.848363820974,574.848363820974,480.284751489598,0,0,0,0,0,4,0,0,NaN,NaN,horizontal,horizontal,vertical,vertical,none,none
1c,2,100129,4,15,207,18,M,NA,variable,homogeneous,4,absent,0.468140840530396,1,horizontal,horizontal,1,0.776468110084534,red,2,NaN,1054.0296480134,577.775285599347,NaN,NaN,822.224714400653,854.029648013395,1054.0296480134,577.775285599347,777.775285599347,345.970351986605,545.970351986605,622.224714400653,0,0,0,0,0,4,0,0,NaN,NaN,vertical,horizontal,vertical,vertical,none,none
1c,2,100129,4,16,208,18,M,NA,variable,homogeneous,3,present,0.382139921188354,1,vertical,vertical,1,0.823526272773743,green,2,3,844.280285305067,348.874022981887,560.378381699593,687.215136548046,995.341332995339,763.910840470068,844.280285305067,348.874022981887,560.378381699593,687.215136548046,0,0,0,0,0,0,0,4,0,NaN,NaN,NaN,vertical,vertical,vertical,none,none,none
1c,2,100129,4,17,209,18,M,NA,variable,homogeneous,5,present,0.499498128890991,1,horizontal,horizontal,1,0.694116325378418,green,5,2,563.568117085469,695.524681321058,1047.42541020038,661.690083377915,817.787900804752,854.378832816255,1047.42541020038,661.690083377915,935.129412379467,383.747735480111,636.089159529932,404.658667004661,563.568117085469,695.524681321058,0,0,0,0,0,0,4,NaN,horizontal,horizontal,vertical,vertical,horizontal,none
1c,2,100129,4,18,210,18,M,NA,variable,homogeneous,4,present,0.360004901885986,1,vertical,vertical,1,0.70588086605072,red,2,4,1052.5183575291,564.510859255183,547.481642470899,635.489140744817,835.489140744817,852.518357529101,1052.5183575291,564.510859255183,764.510859255183,347.4816424709,547.481642470899,635.489140744817,0,0,0,0,0,4,0,0,NaN,NaN,vertical,vertical,horizontal,vertical,none,none
1c,2,100129,4,19,211,18,M,NA,variable,homogeneous,5,present,0.504893064498901,1,vertical,vertical,1,1.08234616756439,green,1,3,786.654331158049,854.650531362416,960.476699717708,401.827779828472,786.654331158049,854.650531362416,1038.06300875679,691.383827134052,960.476699717708,401.827779828472,661.117046071168,386.139005173917,553.688914296288,665.998856501143,0,0,4,0,0,0,0,NaN,vertical,vertical,horizontal,horizontal,vertical,none
1c,2,100129,4,20,212,18,M,NA,variable,homogeneous,3,absent,0.38396692276001,0,vertical,horizontal,1,1.03528800487518,green,3,NaN,558.892763222174,516.980120613425,NaN,NaN,848.656293821019,850.314931779154,992.450942956807,432.704947607421,558.892763222174,516.980120613425,0,0,0,0,0,0,0,0,4,NaN,NaN,NaN,horizontal,vertical,vertical,none,none,none
1c,2,100129,4,21,213,18,M,NA,variable,homogeneous,6,present,0.457340955734253,1,vertical,vertical,1,0.882348976135254,green,4,1,923.626453162816,376.971974679454,676.373546837184,823.028025320546,676.373546837184,823.028025320546,931.334709102064,818.577661679039,1054.96116226488,595.549636358493,923.626453162816,376.971974679454,668.665290897936,381.422338320961,545.03883773512,604.450363641507,0,0,0,4,0,0,horizontal,vertical,horizontal,vertical,horizontal,horizontal
1c,2,100129,4,22,214,18,M,NA,variable,homogeneous,5,absent,0.384860038757324,1,vertical,vertical,1,0.717645406723022,red,1,NaN,684.232422566416,827.206663668034,NaN,NaN,684.232422566416,827.206663668034,980.31222920257,780.31222920257,1027.20666366803,484.232422566416,760.109211414741,348.13947314824,548.13947314824,560.109211414741,0,0,4,0,0,0,0,NaN,vertical,vertical,vertical,vertical,horizontal,none
1c,2,100129,4,23,215,18,M,NA,variable,homogeneous,3,absent,0.409463167190552,1,vertical,vertical,1,0.835290813446045,red,2,NaN,927.5,379.163522034968,NaN,NaN,927.5,820.836477965032,927.5,379.163522034968,545,600,0,0,0,0,0,0,0,4,0,NaN,NaN,NaN,horizontal,vertical,vertical,none,none,none
1c,2,100129,4,24,216,18,M,NA,variable,homogeneous,5,present,0.473706960678101,1,vertical,vertical,1,0.788232650756836,red,1,2,755.719714694933,851.125977018113,1025.15163617903,719.715248510402,755.719714694933,851.125977018113,1025.15163617903,719.715248510402,983.431649086356,422.862115532956,688.215357568785,370.807518193712,547.481642470899,635.489140744817,0,0,4,0,0,0,0,NaN,vertical,horizontal,horizontal,horizontal,horizontal,none
1c,2,100129,4,25,217,18,M,NA,variable,homogeneous,5,present,0.590075969696045,1,horizontal,horizontal,1,0.952936220169067,red,1,5,738.309916622085,847.425410200379,545.621167183745,617.787900804752,738.309916622085,847.425410200379,1016.25226451989,735.129412379467,995.341332995339,436.089159529932,704.475318678942,363.568117085469,545.621167183745,617.787900804752,0,0,4,0,0,0,0,NaN,horizontal,horizontal,vertical,vertical,horizontal,none
1c,2,100129,4,26,218,18,M,NA,variable,homogeneous,6,present,0.391177892684937,1,vertical,vertical,1,0.847055354118347,green,3,1,1042.51941165526,521.200666434388,746.982518841471,849.42763818712,746.982518841471,849.42763818712,989.501930496736,770.628304621509,1042.51941165526,521.200666434388,853.017481158529,350.57236181288,610.498069503264,429.371695378491,557.480588344736,678.799333565612,0,0,4,0,0,0,horizontal,vertical,vertical,horizontal,vertical,vertical
1c,2,100129,4,27,219,18,M,NA,variable,homogeneous,6,absent,0.44831395149231,1,vertical,vertical,1,0.847055354118347,red,5,NaN,588.595418998464,457.40580961496,NaN,NaN,782.212099195248,854.378832816255,1011.40458100154,742.594190385041,1029.19248180629,488.215357568785,817.787900804752,345.621167183745,588.595418998464,457.40580961496,570.807518193712,711.784642431215,0,0,0,0,4,0,horizontal,horizontal,horizontal,horizontal,vertical,horizontal
1c,2,100129,4,28,220,18,M,NA,variable,homogeneous,3,absent,0.574818134307861,1,vertical,vertical,1,1.07058162689209,green,1,NaN,786.654331158049,854.650531362416,NaN,NaN,786.654331158049,854.650531362416,1027.20666366803,484.232422566416,586.139005173917,461.117046071168,0,0,0,0,0,0,4,0,0,NaN,NaN,NaN,vertical,vertical,vertical,none,none,none
1c,2,100129,4,29,221,18,M,NA,variable,homogeneous,6,absent,0.375909805297852,1,vertical,vertical,1,0.870584435462952,green,3,NaN,1025.15163617903,480.284751489598,NaN,NaN,791.100628340862,854.844660889869,1016.25226451989,735.129412379467,1025.15163617903,480.284751489598,808.899371659138,345.155339110131,583.747735480111,464.870587620533,574.848363820974,719.715248510402,0,0,4,0,0,0,horizontal,vertical,vertical,vertical,vertical,horizontal
1c,2,100129,4,30,222,18,M,NA,variable,homogeneous,4,absent,0.309745073318481,1,vertical,vertical,1,0.894113516807556,green,3,NaN,960.476699717708,401.827779828472,NaN,NaN,639.523300282292,798.172220171528,998.172220171528,760.476699717708,960.476699717708,401.827779828472,601.827779828472,439.523300282291,0,0,0,0,0,0,4,0,NaN,NaN,vertical,vertical,vertical,vertical,none,none
1c,2,100129,4,31,223,18,M,NA,variable,homogeneous,6,present,0.451030969619751,1,vertical,vertical,1,0.96470076084137,red,6,4,551.535633479765,657.362518857686,874.554784704298,356.142287229426,725.445215295702,843.857712770574,973.909581815937,786.495193912888,1048.46436652023,542.637481142314,874.554784704298,356.142287229426,626.090418184063,413.504806087112,551.535633479765,657.362518857686,0,0,0,0,0,4,vertical,vertical,horizontal,vertical,vertical,vertical
1c,2,100129,4,32,224,18,M,NA,variable,homogeneous,6,absent,0.686856985092163,0,horizontal,vertical,1,0.929407138824463,red,1,NaN,887.215136548046,839.621618300407,NaN,NaN,887.215136548046,839.621618300407,1051.12597701811,644.280285305067,963.910840470068,404.658667004661,712.784863451954,360.378381699593,548.874022981887,555.719714694933,636.089159529932,795.341332995339,4,0,0,0,0,0,horizontal,vertical,horizontal,vertical,horizontal,horizontal
1c,2,100129,4,33,225,18,M,NA,variable,homogeneous,3,absent,0.729862928390503,1,horizontal,horizontal,1,0.847055354118347,green,1,NaN,725.445215295702,843.857712770574,NaN,NaN,725.445215295702,843.857712770574,1048.46436652023,542.637481142314,626.090418184063,413.504806087112,0,0,0,0,0,0,4,0,0,NaN,NaN,NaN,horizontal,vertical,vertical,none,none,none
1c,2,100129,4,34,226,18,M,NA,variable,homogeneous,6,absent,0.395537137985229,1,horizontal,horizontal,1,0.952936220169067,red,3,NaN,1027.20666366803,484.232422566416,NaN,NaN,786.654331158049,854.650531362416,1013.86099482608,738.882953928832,1027.20666366803,484.232422566416,813.345668841951,345.349468637584,586.139005173917,461.117046071168,572.793336331966,715.767577433584,0,0,4,0,0,0,horizontal,horizontal,horizontal,vertical,vertical,horizontal
1c,2,100129,4,35,227,18,M,NA,variable,homogeneous,3,present,0.539743900299072,1,vertical,vertical,1,0.799997191429138,red,2,3,1050.31493177915,551.343706178981,632.704947607421,407.549057043193,716.980120613425,841.107236777826,1050.31493177915,551.343706178981,632.704947607421,407.549057043193,0,0,0,0,0,0,0,4,0,NaN,NaN,NaN,vertical,vertical,vertical,none,none,none
1c,2,100129,4,36,228,18,M,NA,variable,homogeneous,3,present,0.320203065872192,1,vertical,vertical,1,0.894113516807556,red,2,3,1039.62161830041,512.784863451954,604.658667004661,436.089159529932,755.719714694933,851.125977018113,1039.62161830041,512.784863451954,604.658667004661,436.089159529932,0,0,0,0,0,0,0,4,0,NaN,NaN,NaN,vertical,vertical,vertical,none,none,none
1c,2,100129,4,37,229,18,M,NA,variable,homogeneous,3,present,0.356873989105225,1,horizontal,horizontal,1,0.905878057479858,red,2,3,1051.12597701811,555.719714694933,636.089159529932,404.658667004661,712.784863451954,839.621618300407,1051.12597701811,555.719714694933,636.089159529932,404.658667004661,0,0,0,0,0,0,0,4,0,NaN,NaN,NaN,horizontal,horizontal,horizontal,none,none,none
1c,2,100129,4,38,230,18,M,NA,variable,homogeneous,6,present,0.465062141418457,1,vertical,vertical,1,0.647058162689209,red,1,3,768.923317431687,853.099268668537,1034.72873763037,500.363562235235,768.923317431687,853.099268668537,1003.65205506206,753.462830903772,1034.72873763037,500.363562235235,831.076682568313,346.900731331463,596.34794493794,446.537169096228,565.271262369628,699.636437764765,4,0,0,0,0,0,vertical,horizontal,vertical,horizontal,vertical,horizontal
1c,2,100129,4,39,231,18,M,NA,variable,homogeneous,5,absent,0.481011867523193,1,horizontal,horizontal,1,0.905878057479858,red,3,NaN,878.799333565612,357.480588344736,NaN,NaN,878.799333565612,842.519411655264,1055,600,878.799333565612,357.480588344736,593.700666434388,450.114760665419,593.700666434388,749.885239334581,0,0,0,0,4,0,0,NaN,vertical,horizontal,horizontal,vertical,vertical,none
1c,2,100129,4,40,232,18,M,NA,variable,homogeneous,6,absent,0.426163911819458,1,vertical,vertical,1,0.988229842185974,green,2,NaN,1016.25226451989,735.129412379467,NaN,NaN,791.100628340862,854.844660889869,1016.25226451989,735.129412379467,1025.15163617903,480.284751489598,808.899371659138,345.155339110131,583.747735480111,464.870587620533,574.848363820974,719.715248510402,0,4,0,0,0,0,horizontal,vertical,horizontal,horizontal,horizontal,vertical
1c,2,100129,4,41,233,18,M,NA,variable,homogeneous,5,absent,0.478095054626465,0,horizontal,vertical,1,0.752939028739929,green,4,NaN,650.114760665419,393.700666434388,NaN,NaN,800,855,1042.51941165526,678.799333565612,949.885239334581,393.700666434388,650.114760665419,393.700666434388,557.480588344736,678.799333565612,0,0,0,0,0,4,0,NaN,vertical,vertical,vertical,horizontal,horizontal,none
1c,2,100129,4,42,234,18,M,NA,variable,homogeneous,5,present,0.476058959960938,1,vertical,vertical,1,1.02352346420288,red,1,2,887.215136548046,839.621618300407,1054.84466088987,591.100628340862,887.215136548046,839.621618300407,1054.84466088987,591.100628340862,870.287525733335,354.878267535729,588.595418998464,457.40580961496,599.057257830286,756.993676208043,0,0,4,0,0,0,0,NaN,vertical,vertical,vertical,horizontal,horizontal,none
1c,2,100129,4,43,235,18,M,NA,variable,homogeneous,4,present,0.655131101608276,1,vertical,vertical,1,0.858819894790649,red,1,3,977.137884467044,783.431649086356,622.862115532956,416.568350913644,977.137884467044,783.431649086356,983.431649086356,422.862115532956,622.862115532956,416.568350913644,616.568350913644,777.137884467044,0,0,0,0,4,0,0,0,NaN,NaN,vertical,horizontal,vertical,horizontal,none,none
1c,2,100129,4,44,236,18,M,NA,variable,homogeneous,4,absent,0.414789199829102,0,horizontal,vertical,1,0.741174488067627,green,3,NaN,895.524681321058,363.568117085469,NaN,NaN,704.475318678942,836.431882914531,1036.43188291453,695.524681321058,895.524681321058,363.568117085469,563.568117085469,504.475318678942,0,0,0,0,0,0,4,0,NaN,NaN,vertical,vertical,horizontal,vertical,none,none
1c,2,100129,4,45,237,18,M,NA,variable,homogeneous,5,present,0.561026096343994,1,horizontal,horizontal,1,1.07058162689209,red,3,4,887.215136548046,360.378381699593,599.057257830286,443.006323791957,870.287525733335,845.121732464271,1054.84466088987,608.899371659138,887.215136548046,360.378381699593,599.057257830286,443.006323791957,588.595418998464,742.594190385041,0,0,0,0,4,0,0,NaN,vertical,vertical,horizontal,vertical,horizontal,none
1c,2,100129,4,46,238,18,M,NA,variable,homogeneous,3,present,0.42298412322998,1,horizontal,horizontal,1,0.717645406723022,green,3,1,773.345241866748,346.39691668109,593.700666434388,749.885239334581,593.700666434388,749.885239334581,1032.95409169886,703.717843984329,773.345241866748,346.39691668109,0,0,0,0,0,0,0,0,4,NaN,NaN,NaN,horizontal,horizontal,horizontal,none,none,none
1c,2,100129,4,47,239,18,M,NA,variable,homogeneous,5,absent,0.533105134963989,1,vertical,vertical,1,0.694116325378418,red,1,NaN,903.717843984329,832.954091698863,NaN,NaN,903.717843984329,832.954091698863,1053.60308331891,573.345241866748,853.017481158529,350.57236181288,579.163522034968,472.5,610.498069503264,770.628304621509,0,0,4,0,0,0,0,NaN,vertical,horizontal,horizontal,vertical,horizontal,none
1c,2,100129,4,48,240,18,M,NA,variable,homogeneous,6,present,0.400713205337524,1,horizontal,horizontal,1,1.02352346420288,red,2,3,946.261991269517,808.883771293693,1054.0296480134,577.775285599347,692.232343256122,831.108485694346,946.261991269517,808.883771293693,1054.0296480134,577.775285599347,907.767656743878,368.891514305654,653.738008730483,391.116228706307,545.970351986605,622.224714400653,0,4,0,0,0,0,horizontal,horizontal,horizontal,horizontal,vertical,vertical
1c,2,100129,4,49,241,18,M,NA,variable,homogeneous,3,present,0.421210050582886,1,vertical,vertical,1,0.623529081344604,green,2,3,1029.19248180629,711.784642431215,782.212099195248,345.621167183745,588.595418998464,742.594190385041,1029.19248180629,711.784642431215,782.212099195248,345.621167183745,0,0,0,0,0,0,0,4,0,NaN,NaN,NaN,horizontal,vertical,horizontal,none,none,none
1c,2,100129,4,50,242,18,M,NA,variable,homogeneous,4,absent,0.459053039550781,1,horizontal,horizontal,1,0.658822703361511,red,4,NaN,545.970351986605,622.224714400653,NaN,NaN,822.224714400653,854.029648013395,1054.0296480134,577.775285599347,777.775285599347,345.970351986605,545.970351986605,622.224714400653,0,0,0,0,0,0,0,4,NaN,NaN,vertical,vertical,horizontal,horizontal,none,none
1c,2,100129,4,51,243,18,M,NA,variable,homogeneous,3,absent,0.516776084899902,1,horizontal,horizontal,1,1.02352346420288,red,1,NaN,891.383827134052,838.063008756786,NaN,NaN,891.383827134052,838.063008756786,960.476699717708,401.827779828472,548.13947314824,560.109211414741,0,0,0,0,0,0,4,0,0,NaN,NaN,NaN,horizontal,horizontal,vertical,none,none,none
1c,2,100129,4,52,244,18,M,NA,variable,homogeneous,5,absent,0.372900009155273,1,vertical,vertical,1,0.870584435462952,green,1,NaN,650.114760665419,806.299333565612,NaN,NaN,650.114760665419,806.299333565612,949.885239334581,806.299333565612,1042.51941165526,521.200666434388,800,345,557.480588344736,521.200666434388,0,0,4,0,0,0,0,NaN,vertical,vertical,horizontal,vertical,horizontal,none
1c,2,100129,4,53,245,18,M,NA,variable,homogeneous,4,present,0.388962030410767,1,horizontal,horizontal,1,1.02352346420288,green,1,4,696.282156015671,832.954091698863,567.045908301137,496.282156015671,696.282156015671,832.954091698863,1032.95409169886,703.717843984329,903.717843984329,367.045908301137,567.045908301137,496.282156015671,0,0,0,0,4,0,0,0,NaN,NaN,horizontal,horizontal,horizontal,vertical,none,none
