experiment,subject,uniqueID,block,trial,trial_cumulative,age,gender,color_cond_blocking,color_history,shape_type,set_size,distractor,rt,acc,target_orient,response_key,response_made,iti,target_color,target_item,distractor_item,target_X,target_Y,distractor_X,distractor_Y,item1_X,item1_Y,item2_X,item2_Y,item3_X,item3_Y,item4_X,item4_Y,item5_X,item5_Y,item6_X,item6_Y,item1_shape,item2_shape,item3_shape,item4_shape,item5_shape,item6_shape,item1_line,item2_line,item3_line,item4_line,item5_line,item6_line
1c,3,100137,1,1,1,20,F,NA,variable,homogeneous,6,present,1.17727208137512,1,vertical,vertical,1,0.6,red,5,4,661.117046071168,386.139005173917,915.767577433584,372.793336331966,684.232422566416,827.206663668034,938.882953928832,813.860994826083,1054.65053136242,586.654331158049,915.767577433584,372.793336331966,661.117046071168,386.139005173917,545.349468637584,613.345668841951,0,0,0,0,4,0,horizontal,vertical,horizontal,vertical,vertical,vertical
1c,3,100137,1,2,2,20,F,NA,variable,homogeneous,6,absent,NaN,0,vertical,none,0,0.964701943397522,green,6,NaN,629.371695378491,789.501930496736,NaN,NaN,878.799333565612,842.519411655264,1049.42763818712,653.017481158529,970.628304621509,410.498069503264,721.200666434388,357.480588344736,550.57236181288,546.982518841471,629.371695378491,789.501930496736,0,0,0,0,0,4,horizontal,vertical,vertical,vertical,vertical,vertical
1c,3,100137,1,3,3,20,F,NA,variable,homogeneous,3,present,1.69001007080078,1,vertical,vertical,1,1.08234773159027,green,3,1,551.535633479765,542.637481142314,874.554784704298,843.857712770574,874.554784704298,843.857712770574,973.909581815937,413.504806087112,551.535633479765,542.637481142314,0,0,0,0,0,0,0,0,4,NaN,NaN,NaN,vertical,vertical,vertical,none,none,none
1c,3,100137,1,4,4,20,F,NA,variable,homogeneous,3,present,1.61222219467163,1,vertical,vertical,1,1.0235248374939,green,1,2,1020.83647796503,727.5,800,345,1020.83647796503,727.5,800,345,579.163522034968,727.5,0,0,0,0,0,0,4,0,0,NaN,NaN,NaN,vertical,vertical,horizontal,none,none,none
1c,3,100137,1,5,5,20,F,NA,variable,homogeneous,3,absent,1.02242398262024,1,horizontal,horizontal,1,0.870585312843323,green,3,NaN,545.621167183745,582.212099195248,NaN,NaN,911.784642431215,829.192481806288,942.594190385041,388.595418998464,545.621167183745,582.212099195248,0,0,0,0,0,0,0,0,4,NaN,NaN,NaN,vertical,vertical,horizontal,none,none,none
1c,3,100137,1,6,6,20,F,NA,variable,homogeneous,4,present,NaN,0,vertical,none,0,0.741174945831299,red,4,1,560.378381699593,512.784863451954,712.784863451954,839.621618300407,712.784863451954,839.621618300407,1039.62161830041,687.215136548046,887.215136548046,360.378381699593,560.378381699593,512.784863451954,0,0,0,0,0,0,0,4,NaN,NaN,vertical,horizontal,vertical,vertical,none,none
1c,3,100137,1,7,7,20,F,NA,variable,homogeneous,4,absent,0.691642045974731,1,horizontal,horizontal,1,0.670587472915649,green,1,NaN,844.280285305067,851.125977018113,NaN,NaN,844.280285305067,851.125977018113,1051.12597701811,555.719714694933,755.719714694933,348.874022981887,548.874022981887,644.280285305067,0,0,0,0,4,0,0,0,NaN,NaN,horizontal,vertical,vertical,vertical,none,none
1c,3,100137,1,8,8,20,F,NA,variable,homogeneous,5,absent,0.948660135269165,1,vertical,vertical,1,0.952937364578247,green,5,NaN,548.13947314824,560.109211414741,NaN,NaN,684.232422566416,827.206663668034,980.31222920257,780.31222920257,1027.20666366803,484.232422566416,760.109211414741,348.13947314824,548.13947314824,560.109211414741,0,0,0,0,0,0,4,NaN,vertical,horizontal,vertical,horizontal,vertical,none
1c,3,100137,1,9,9,20,F,NA,variable,homogeneous,3,present,0.927988052368164,1,vertical,vertical,1,0.811762418746948,red,2,3,970.628304621509,410.498069503264,550.57236181288,546.982518841471,878.799333565612,842.519411655264,970.628304621509,410.498069503264,550.57236181288,546.982518841471,0,0,0,0,0,0,0,4,0,NaN,NaN,NaN,horizontal,vertical,horizontal,none,none,none
1c,3,100137,1,10,10,20,F,NA,variable,homogeneous,5,present,0.75957989692688,1,horizontal,horizontal,1,1.03528941631317,green,2,5,1054.96116226488,595.549636358493,596.34794493794,753.462830903772,883.019879386575,841.107236777826,1054.96116226488,595.549636358493,874.554784704298,356.142287229426,591.116228706307,453.738008730483,596.34794493794,753.462830903772,0,0,0,4,0,0,0,NaN,horizontal,horizontal,vertical,vertical,horizontal,none
1c,3,100137,1,11,11,20,F,NA,variable,homogeneous,3,present,0.676783084869385,1,vertical,vertical,1,1.09411231040955,red,1,2,980.31222920257,780.31222920257,865.998856501143,353.688914296288,980.31222920257,780.31222920257,865.998856501143,353.688914296288,553.688914296288,665.998856501143,0,0,0,0,0,0,4,0,0,NaN,NaN,NaN,vertical,horizontal,horizontal,none,none,none
1c,3,100137,1,12,12,20,F,NA,variable,homogeneous,5,absent,0.804808855056763,1,horizontal,horizontal,1,0.917643628120422,red,4,NaN,725.445215295702,356.142287229426,NaN,NaN,716.980120613425,841.107236777826,1003.65205506206,753.462830903772,1008.88377129369,453.738008730483,725.445215295702,356.142287229426,545.03883773512,595.549636358493,0,0,0,0,0,4,0,NaN,horizontal,vertical,vertical,horizontal,vertical,none
1c,3,100137,1,13,13,20,F,NA,variable,homogeneous,6,present,1.00596404075623,1,vertical,vertical,1,1.03528941631317,red,6,4,636.089159529932,795.341332995339,712.784863451954,360.378381699593,887.215136548046,839.621618300407,1051.12597701811,644.280285305067,963.910840470068,404.658667004661,712.784863451954,360.378381699593,548.874022981887,555.719714694933,636.089159529932,795.341332995339,0,0,0,0,0,4,horizontal,vertical,vertical,vertical,vertical,vertical
1c,3,100137,1,14,14,20,F,NA,variable,homogeneous,4,present,0.831601142883301,1,horizontal,horizontal,1,0.682352051734924,red,1,3,844.280285305067,851.125977018113,755.719714694933,348.874022981887,844.280285305067,851.125977018113,1051.12597701811,555.719714694933,755.719714694933,348.874022981887,548.874022981887,644.280285305067,0,0,0,0,4,0,0,0,NaN,NaN,horizontal,horizontal,vertical,horizontal,none,none
1c,3,100137,1,15,15,20,F,NA,variable,homogeneous,4,absent,0.604174852371216,0,horizontal,vertical,1,0.976466522216797,green,2,NaN,1043.85771277057,525.445215295702,NaN,NaN,874.554784704298,843.857712770574,1043.85771277057,525.445215295702,725.445215295702,356.142287229426,556.142287229426,674.554784704298,0,0,0,0,0,4,0,0,NaN,NaN,horizontal,horizontal,vertical,vertical,none,none
1c,3,100137,1,16,16,20,F,NA,variable,homogeneous,6,present,1.02708101272583,1,vertical,vertical,1,0.741174945831299,green,1,5,907.767656743878,831.108485694346,545.970351986605,577.775285599347,907.767656743878,831.108485694346,1054.0296480134,622.224714400653,946.261991269517,391.116228706307,692.232343256122,368.891514305654,545.970351986605,577.775285599347,653.738008730483,808.883771293693,4,0,0,0,0,0,vertical,vertical,horizontal,horizontal,vertical,horizontal
1c,3,100137,1,17,17,20,F,NA,variable,homogeneous,5,absent,0.893588066101074,1,vertical,vertical,1,1.08234773159027,red,3,NaN,817.787900804752,345.621167183745,NaN,NaN,935.129412379467,816.252264519889,1047.42541020038,538.309916622085,817.787900804752,345.621167183745,563.568117085469,504.475318678942,636.089159529932,795.341332995339,0,0,0,0,4,0,0,NaN,horizontal,vertical,vertical,vertical,vertical,none
1c,3,100137,1,18,18,20,F,NA,variable,homogeneous,6,present,NaN,0,horizontal,none,0,0.811762418746948,green,1,5,853.017481158529,849.42763818712,557.480588344736,521.200666434388,853.017481158529,849.42763818712,1042.51941165526,678.799333565612,989.501930496736,429.371695378491,746.982518841471,350.57236181288,557.480588344736,521.200666434388,610.498069503264,770.628304621509,4,0,0,0,0,0,horizontal,vertical,horizontal,vertical,horizontal,horizontal
1c,3,100137,1,19,19,20,F,NA,variable,homogeneous,3,absent,1.75021481513977,1,vertical,vertical,1,1.09411231040955,green,2,NaN,1042.51941165526,521.200666434388,NaN,NaN,746.982518841471,849.42763818712,1042.51941165526,521.200666434388,610.498069503264,429.371695378491,0,0,0,0,0,0,0,4,0,NaN,NaN,NaN,vertical,vertical,horizontal,none,none,none
1c,3,100137,1,20,20,20,F,NA,variable,homogeneous,4,absent,0.82233190536499,1,vertical,vertical,1,0.6470583152771,green,3,NaN,826.654758133252,346.39691668109,NaN,NaN,773.345241866748,853.60308331891,1053.60308331891,626.654758133252,826.654758133252,346.39691668109,546.39691668109,573.345241866748,0,0,0,0,0,0,4,0,NaN,NaN,horizontal,horizontal,vertical,vertical,none,none
1c,3,100137,1,21,21,20,F,NA,variable,homogeneous,5,absent,0.686786890029907,1,vertical,vertical,1,0.788233261108398,green,4,NaN,688.215357568785,370.807518193712,NaN,NaN,755.719714694933,851.125977018113,1025.15163617903,719.715248510402,983.431649086356,422.862115532956,688.215357568785,370.807518193712,547.481642470899,635.489140744817,0,0,0,0,0,4,0,NaN,vertical,horizontal,horizontal,vertical,horizontal,none
1c,3,100137,1,22,22,20,F,NA,variable,homogeneous,5,present,0.793093919754028,1,horizontal,horizontal,1,0.62352915763855,red,4,3,636.089159529932,404.658667004661,935.129412379467,383.747735480111,817.787900804752,854.378832816255,1047.42541020038,661.690083377915,935.129412379467,383.747735480111,636.089159529932,404.658667004661,563.568117085469,695.524681321058,0,0,0,0,0,4,0,NaN,horizontal,horizontal,horizontal,horizontal,vertical,none
1c,3,100137,1,23,23,20,F,NA,variable,homogeneous,6,present,0.823334932327271,1,vertical,vertical,1,0.705881209373474,green,3,2,946.261991269517,391.116228706307,1054.0296480134,622.224714400653,907.767656743878,831.108485694346,1054.0296480134,622.224714400653,946.261991269517,391.116228706307,692.232343256122,368.891514305654,545.970351986605,577.775285599347,653.738008730483,808.883771293693,0,0,4,0,0,0,horizontal,vertical,vertical,horizontal,horizontal,vertical
1c,3,100137,1,24,24,20,F,NA,variable,homogeneous,5,present,0.612882852554321,1,vertical,vertical,1,0.847056155204773,green,3,4,963.910840470068,404.658667004661,664.870587620533,383.747735480111,782.212099195248,854.378832816255,1036.43188291453,695.524681321058,963.910840470068,404.658667004661,664.870587620533,383.747735480111,552.574589799621,661.690083377915,0,0,0,0,4,0,0,NaN,vertical,horizontal,vertical,horizontal,vertical,none
1c,3,100137,1,25,25,20,F,NA,variable,homogeneous,3,present,0.970580816268921,1,horizontal,horizontal,1,0.858820734024048,red,1,2,995.341332995339,763.910840470068,844.280285305067,348.874022981887,995.341332995339,763.910840470068,844.280285305067,348.874022981887,560.378381699593,687.215136548046,0,0,0,0,0,0,4,0,0,NaN,NaN,NaN,horizontal,horizontal,vertical,none,none,none
1c,3,100137,1,26,26,20,F,NA,variable,homogeneous,5,present,0.717000007629395,1,horizontal,horizontal,1,0.941172785758972,red,2,1,1053.60308331891,573.345241866748,903.717843984329,832.954091698863,903.717843984329,832.954091698863,1053.60308331891,573.345241866748,853.017481158529,350.57236181288,579.163522034968,472.5,610.498069503264,770.628304621509,0,0,0,4,0,0,0,NaN,horizontal,horizontal,vertical,horizontal,horizontal,none
1c,3,100137,1,27,27,20,F,NA,variable,homogeneous,4,present,0.792397022247314,1,vertical,vertical,1,0.635293736457825,green,3,2,676.373546837184,376.971974679454,1023.02802532055,476.373546837184,923.626453162816,823.028025320546,1023.02802532055,476.373546837184,676.373546837184,376.971974679454,576.971974679454,723.626453162816,0,0,0,0,0,0,4,0,NaN,NaN,horizontal,vertical,vertical,vertical,none,none
1c,3,100137,1,28,28,20,F,NA,variable,homogeneous,5,present,0.959998846054077,1,horizontal,horizontal,1,0.776468682289124,green,4,5,650.114760665419,393.700666434388,557.480588344736,678.799333565612,800,855,1042.51941165526,678.799333565612,949.885239334581,393.700666434388,650.114760665419,393.700666434388,557.480588344736,678.799333565612,0,0,0,0,0,4,0,NaN,vertical,horizontal,vertical,horizontal,vertical,none
1c,3,100137,1,29,29,20,F,NA,variable,homogeneous,5,present,0.942553997039795,0,vertical,horizontal,1,0.764704103469849,green,5,2,545.970351986605,577.775285599347,992.450942956807,767.295052392579,700.363562235235,834.728737630372,992.450942956807,767.295052392579,1018.57766167904,468.665290897936,742.637481142314,351.535633479765,545.970351986605,577.775285599347,0,0,0,0,0,0,4,NaN,horizontal,vertical,vertical,vertical,vertical,none
1c,3,100137,1,30,30,20,F,NA,variable,homogeneous,4,present,0.877571105957031,1,vertical,vertical,1,0.999995679855347,red,2,3,1023.02802532055,476.373546837184,676.373546837184,376.971974679454,923.626453162816,823.028025320546,1023.02802532055,476.373546837184,676.373546837184,376.971974679454,576.971974679454,723.626453162816,0,0,0,0,0,4,0,0,NaN,NaN,vertical,vertical,vertical,horizontal,none,none
1c,3,100137,1,31,31,20,F,NA,variable,homogeneous,3,present,NaN,0,horizontal,none,0,0.976466522216797,green,2,1,1054.84466088987,591.100628340862,680.284751489598,825.151636179026,680.284751489598,825.151636179026,1054.84466088987,591.100628340862,664.870587620533,383.747735480111,0,0,0,0,0,0,0,4,0,NaN,NaN,NaN,vertical,horizontal,vertical,none,none,none
1c,3,100137,1,32,32,20,F,NA,variable,homogeneous,3,absent,0.879328012466431,1,vertical,vertical,1,0.799997839927673,green,1,NaN,1011.40458100154,742.594190385041,NaN,NaN,1011.40458100154,742.594190385041,817.787900804752,345.621167183745,570.807518193712,711.784642431215,0,0,0,0,0,0,4,0,0,NaN,NaN,NaN,vertical,vertical,horizontal,none,none,none
1c,3,100137,1,33,33,20,F,NA,variable,homogeneous,6,absent,1.63729596138,1,horizontal,horizontal,1,0.823526997566223,red,6,NaN,545.621167183745,617.787900804752,NaN,NaN,688.215357568785,829.192481806288,942.594190385041,811.404581001536,1054.37883281626,582.212099195248,911.784642431215,370.807518193712,657.405809614959,388.595418998464,545.621167183745,617.787900804752,0,0,0,0,0,4,horizontal,vertical,vertical,vertical,horizontal,horizontal
1c,3,100137,1,34,34,20,F,NA,variable,homogeneous,3,absent,0.548910856246948,1,vertical,vertical,1,0.929408206939697,red,2,NaN,870.287525733335,354.878267535729,NaN,NaN,977.137884467044,783.431649086356,870.287525733335,354.878267535729,552.574589799621,661.690083377915,0,0,0,0,0,0,0,4,0,NaN,NaN,NaN,vertical,vertical,vertical,none,none,none
1c,3,100137,1,35,35,20,F,NA,variable,homogeneous,6,present,0.868510961532593,1,horizontal,horizontal,1,0.823526997566223,red,1,4,721.200666434388,842.519411655264,878.799333565612,357.480588344736,721.200666434388,842.519411655264,970.628304621509,789.501930496736,1049.42763818712,546.982518841471,878.799333565612,357.480588344736,629.371695378491,410.498069503264,550.57236181288,653.017481158529,4,0,0,0,0,0,horizontal,horizontal,horizontal,horizontal,horizontal,vertical
1c,3,100137,1,36,36,20,F,NA,variable,homogeneous,4,absent,0.665807962417603,1,horizontal,horizontal,1,1.01176025867462,red,1,NaN,716.980120613425,841.107236777826,NaN,NaN,716.980120613425,841.107236777826,1041.10723677783,683.019879386575,883.019879386575,358.892763222174,558.892763222174,516.980120613425,0,0,0,0,4,0,0,0,NaN,NaN,horizontal,vertical,horizontal,horizontal,none,none
1c,3,100137,1,37,37,20,F,NA,variable,homogeneous,4,absent,1.02384996414185,1,vertical,vertical,1,0.811762418746948,red,2,NaN,983.431649086356,422.862115532956,NaN,NaN,977.137884467044,783.431649086356,983.431649086356,422.862115532956,622.862115532956,416.568350913644,616.568350913644,777.137884467044,0,0,0,0,0,4,0,0,NaN,NaN,vertical,vertical,vertical,horizontal,none,none
1c,3,100137,1,38,38,20,F,NA,variable,homogeneous,4,absent,0.715755939483643,0,vertical,horizontal,1,0.952937364578247,green,3,NaN,632.704947607421,407.549057043193,NaN,NaN,967.295052392579,792.450942956807,992.450942956807,432.704947607421,632.704947607421,407.549057043193,607.549057043193,767.295052392579,0,0,0,0,0,0,4,0,NaN,NaN,horizontal,vertical,vertical,horizontal,none,none
1c,3,100137,1,39,39,20,F,NA,variable,homogeneous,3,absent,1.05269193649292,1,horizontal,horizontal,1,0.929408206939697,red,2,NaN,1054.96116226488,595.549636358493,NaN,NaN,676.373546837184,823.028025320546,1054.96116226488,595.549636358493,668.665290897936,381.422338320961,0,0,0,0,0,0,0,4,0,NaN,NaN,NaN,vertical,horizontal,vertical,none,none,none
1c,3,100137,1,40,40,20,F,NA,variable,homogeneous,4,present,1.21310997009277,1,horizontal,horizontal,1,0.764704103469849,red,2,4,1027.20666366803,715.767577433584,572.793336331966,484.232422566416,684.232422566416,827.206663668034,1027.20666366803,715.767577433584,915.767577433584,372.793336331966,572.793336331966,484.232422566416,0,0,0,0,0,4,0,0,NaN,NaN,vertical,horizontal,vertical,horizontal,none,none
1c,3,100137,1,41,41,20,F,NA,variable,homogeneous,3,absent,1.01976203918457,1,horizontal,horizontal,1,0.905879049301147,green,2,NaN,1046.31108570371,534.001143498857,NaN,NaN,734.001143498857,846.311085703712,1046.31108570371,534.001143498857,619.68777079743,419.68777079743,0,0,0,0,0,0,0,4,0,NaN,NaN,NaN,horizontal,horizontal,horizontal,none,none,none
1c,3,100137,1,42,42,20,F,NA,variable,homogeneous,6,absent,0.962907075881958,1,horizontal,horizontal,1,0.729410367012024,red,2,NaN,1043.85771277057,674.554784704298,NaN,NaN,857.362518857686,848.464366520235,1043.85771277057,674.554784704298,986.495193912888,426.090418184063,742.637481142314,351.535633479765,556.142287229426,525.445215295702,613.504806087112,773.909581815937,0,4,0,0,0,0,horizontal,horizontal,vertical,vertical,vertical,horizontal
1c,3,100137,1,43,43,20,F,NA,variable,homogeneous,6,absent,0.741286993026733,1,vertical,vertical,1,0.952937364578247,red,3,NaN,1000.94274216971,443.006323791957,NaN,NaN,835.489140744817,852.518357529101,1036.43188291453,695.524681321058,1000.94274216971,443.006323791957,764.510859255183,347.4816424709,563.568117085469,504.475318678942,599.057257830286,756.993676208043,0,0,4,0,0,0,vertical,vertical,vertical,vertical,vertical,horizontal
1c,3,100137,1,44,44,20,F,NA,variable,homogeneous,5,absent,0.870642900466919,1,vertical,vertical,1,0.717645788192749,red,1,NaN,755.719714694933,851.125977018113,NaN,NaN,755.719714694933,851.125977018113,1025.15163617903,719.715248510402,983.431649086356,422.862115532956,688.215357568785,370.807518193712,547.481642470899,635.489140744817,0,0,4,0,0,0,0,NaN,vertical,vertical,horizontal,horizontal,horizontal,none
1c,3,100137,1,45,45,20,F,NA,variable,homogeneous,5,absent,1.68029093742371,1,horizontal,horizontal,1,0.788233261108398,red,2,NaN,1000.94274216971,756.993676208043,NaN,NaN,712.784863451954,839.621618300407,1000.94274216971,756.993676208043,1011.40458100154,457.40580961496,729.712474266665,354.878267535729,545.155339110131,591.100628340862,0,0,0,4,0,0,0,NaN,horizontal,horizontal,vertical,horizontal,vertical,none
1c,3,100137,1,46,46,20,F,NA,variable,homogeneous,4,absent,0.642782926559448,1,horizontal,horizontal,1,0.635293736457825,red,4,NaN,545.970351986605,622.224714400653,NaN,NaN,822.224714400653,854.029648013395,1054.0296480134,577.775285599347,777.775285599347,345.970351986605,545.970351986605,622.224714400653,0,0,0,0,0,0,0,4,NaN,NaN,horizontal,vertical,vertical,horizontal,none,none
1c,3,100137,1,47,47,20,F,NA,variable,homogeneous,6,present,0.804564952850342,1,horizontal,horizontal,1,0.6470583152771,green,4,1,725.445215295702,356.142287229426,874.554784704298,843.857712770574,874.554784704298,843.857712770574,1048.46436652023,657.362518857686,973.909581815937,413.504806087112,725.445215295702,356.142287229426,551.535633479765,542.637481142314,626.090418184063,786.495193912888,0,0,0,4,0,0,vertical,vertical,horizontal,horizontal,vertical,vertical
1c,3,100137,1,48,48,20,F,NA,variable,homogeneous,3,present,0.616265058517456,1,horizontal,horizontal,1,0.976466522216797,green,2,1,808.899371659138,345.155339110131,1016.25226451989,735.129412379467,1016.25226451989,735.129412379467,808.899371659138,345.155339110131,574.848363820974,719.715248510402,0,0,0,0,0,0,0,4,0,NaN,NaN,NaN,horizontal,horizontal,vertical,none,none,none
1c,3,100137,1,49,49,20,F,NA,variable,homogeneous,3,absent,0.542294025421143,1,vertical,vertical,1,1.08234773159027,red,2,NaN,1054.65053136242,586.654331158049,NaN,NaN,684.232422566416,827.206663668034,1054.65053136242,586.654331158049,661.117046071168,386.139005173917,0,0,0,0,0,0,0,4,0,NaN,NaN,NaN,horizontal,vertical,vertical,none,none,none
1c,3,100137,1,50,50,20,F,NA,variable,homogeneous,5,present,0.994814157485962,0,vertical,horizontal,1,0.658822894096375,red,3,1,963.910840470068,404.658667004661,782.212099195248,854.378832816255,782.212099195248,854.378832816255,1036.43188291453,695.524681321058,963.910840470068,404.658667004661,664.870587620533,383.747735480111,552.574589799621,661.690083377915,0,0,0,0,4,0,0,NaN,horizontal,horizontal,vertical,vertical,horizontal,none
1c,3,100137,1,51,51,20,F,NA,variable,homogeneous,5,absent,0.786039113998413,1,horizontal,horizontal,1,0.952937364578247,green,4,NaN,661.117046071168,386.139005173917,NaN,NaN,786.654331158049,854.650531362416,1038.06300875679,691.383827134052,960.476699717708,401.827779828472,661.117046071168,386.139005173917,553.688914296288,665.998856501143,0,0,0,0,0,4,0,NaN,horizontal,horizontal,vertical,horizontal,horizontal,none
1c,3,100137,1,52,52,20,F,NA,variable,homogeneous,6,absent,0.8298659324646,1,horizontal,horizontal,1,0.799997839927673,green,3,NaN,946.261991269517,391.116228706307,NaN,NaN,907.767656743878,831.108485694346,1054.0296480134,622.224714400653,946.261991269517,391.116228706307,692.232343256122,368.891514305654,545.970351986605,577.775285599347,653.738008730483,808.883771293693,0,0,4,0,0,0,vertical,vertical,horizontal,vertical,horizontal,vertical
1c,3,100137,1,53,53,20,F,NA,variable,homogeneous,4,present,1.07307291030884,1,vertical,vertical,1,0.729410367012024,green,1,3,826.654758133252,853.60308331891,773.345241866748,346.39691668109,826.654758133252,853.60308331891,1053.60308331891,573.345241866748,773.345241866748,346.39691668109,546.39691668109,626.654758133252,0,0,0,0,4,0,0,0,NaN,NaN,vertical,vertical,horizontal,vertical,none,none
1c,3,100137,1,54,54,20,F,NA,variable,homogeneous,6,absent,1.57331109046936,1,horizontal,horizontal,1,0.929408206939697,green,6,NaN,568.891514305654,707.767656743878,NaN,NaN,777.775285599347,854.029648013395,1008.88377129369,746.261991269517,1031.10848569435,492.232343256122,822.224714400653,345.970351986605,591.116228706307,453.738008730483,568.891514305654,707.767656743878,0,0,0,0,0,4,vertical,vertical,horizontal,vertical,vertical,horizontal
1c,3,100137,1,55,55,20,F,NA,variable,homogeneous,3,present,1.60686993598938,1,horizontal,horizontal,1,0.694116630554199,red,1,2,835.489140744817,852.518357529101,1000.94274216971,443.006323791957,835.489140744817,852.518357529101,1000.94274216971,443.006323791957,563.568117085469,504.475318678942,0,0,0,0,0,0,4,0,0,NaN,NaN,NaN,horizontal,vertical,horizontal,none,none,none
1c,3,100137,1,56,56,20,F,NA,variable,homogeneous,4,present,0.82071590423584,1,horizontal,horizontal,1,0.870585312843323,green,4,2,548.13947314824,639.890788585259,1051.86052685176,560.109211414741,839.890788585259,851.86052685176,1051.86052685176,560.109211414741,760.109211414741,348.13947314824,548.13947314824,639.890788585259,0,0,0,0,0,0,0,4,NaN,NaN,horizontal,horizontal,vertical,horizontal,none,none
1c,3,100137,1,57,57,20,F,NA,variable,homogeneous,6,absent,0.959341049194336,1,vertical,vertical,1,0.717645788192749,green,2,NaN,927.5,820.836477965032,NaN,NaN,672.5,820.836477965032,927.5,820.836477965032,1055,600,927.5,379.163522034968,672.5,379.163522034968,545,600,0,4,0,0,0,0,vertical,vertical,horizontal,horizontal,vertical,horizontal
1c,3,100137,1,58,58,20,F,NA,variable,homogeneous,3,absent,0.740073204040527,1,horizontal,horizontal,1,0.870585312843323,red,2,NaN,903.717843984329,367.045908301137,NaN,NaN,949.885239334581,806.299333565612,903.717843984329,367.045908301137,546.39691668109,626.654758133252,0,0,0,0,0,0,0,4,0,NaN,NaN,NaN,horizontal,horizontal,vertical,none,none,none
1c,3,100137,1,59,59,20,F,NA,variable,homogeneous,6,absent,0.997539043426514,1,vertical,vertical,1,0.717645788192749,red,2,NaN,970.628304621509,789.501930496736,NaN,NaN,721.200666434388,842.519411655264,970.628304621509,789.501930496736,1049.42763818712,546.982518841471,878.799333565612,357.480588344736,629.371695378491,410.498069503264,550.57236181288,653.017481158529,0,4,0,0,0,0,horizontal,vertical,vertical,horizontal,horizontal,horizontal
1c,3,100137,1,60,60,20,F,NA,variable,homogeneous,4,present,0.83995509147644,1,horizontal,horizontal,1,0.917643628120422,green,1,2,738.309916622085,847.425410200379,1047.42541020038,661.690083377915,738.309916622085,847.425410200379,1047.42541020038,661.690083377915,861.690083377915,352.574589799621,552.574589799621,538.309916622085,0,0,0,0,4,0,0,0,NaN,NaN,horizontal,horizontal,vertical,vertical,none,none
1c,3,100137,1,61,61,20,F,NA,variable,homogeneous,5,present,1.84267687797546,1,vertical,vertical,1,0.694116630554199,red,2,5,1054.65053136242,613.345668841951,586.139005173917,738.882953928832,865.998856501143,846.311085703712,1054.65053136242,613.345668841951,891.383827134052,361.936991243214,601.827779828472,439.523300282291,586.139005173917,738.882953928832,0,0,0,4,0,0,0,NaN,vertical,vertical,horizontal,vertical,vertical,none
1c,3,100137,1,62,62,20,F,NA,variable,homogeneous,6,present,1.25214505195618,1,horizontal,horizontal,1,0.823526997566223,red,4,5,835.489140744817,347.4816424709,599.057257830286,443.006323791957,764.510859255183,852.518357529101,1000.94274216971,756.993676208043,1036.43188291453,504.475318678942,835.489140744817,347.4816424709,599.057257830286,443.006323791957,563.568117085469,695.524681321058,0,0,0,4,0,0,horizontal,vertical,vertical,horizontal,vertical,vertical
1c,3,100137,1,63,63,20,F,NA,variable,homogeneous,5,absent,1.68865299224854,1,horizontal,horizontal,1,0.752939524650574,green,1,NaN,742.637481142314,848.464366520235,NaN,NaN,742.637481142314,848.464366520235,1018.57766167904,731.334709102064,992.450942956807,432.704947607421,700.363562235235,365.271262369628,545.970351986605,622.224714400653,0,0,4,0,0,0,0,NaN,horizontal,horizontal,vertical,vertical,horizontal,none
1c,3,100137,1,64,64,20,F,NA,variable,homogeneous,4,absent,0.606454849243164,1,vertical,vertical,1,0.811762418746948,red,4,NaN,567.045908301137,496.282156015671,NaN,NaN,696.282156015671,832.954091698863,1032.95409169886,703.717843984329,903.717843984329,367.045908301137,567.045908301137,496.282156015671,0,0,0,0,0,0,0,4,NaN,NaN,vertical,vertical,horizontal,vertical,none,none
1c,3,100137,2,1,65,20,F,NA,variable,homogeneous,4,present,0.952569961547852,1,horizontal,horizontal,1,0.776468682289124,red,4,3,596.34794493794,446.537169096228,953.462830903772,396.34794493794,646.537169096228,803.65205506206,1003.65205506206,753.462830903772,953.462830903772,396.34794493794,596.34794493794,446.537169096228,0,0,0,0,0,0,0,4,NaN,NaN,horizontal,horizontal,horizontal,horizontal,none,none
1c,3,100137,2,2,66,20,F,NA,variable,homogeneous,4,absent,1.16208910942078,1,horizontal,horizontal,1,0.905879049301147,green,2,NaN,1036.43188291453,695.524681321058,NaN,NaN,704.475318678942,836.431882914531,1036.43188291453,695.524681321058,895.524681321058,363.568117085469,563.568117085469,504.475318678942,0,0,0,0,0,4,0,0,NaN,NaN,vertical,horizontal,vertical,vertical,none,none
1c,3,100137,2,3,67,20,F,NA,variable,homogeneous,4,absent,1.15823078155518,1,horizontal,horizontal,1,1.04705399513245,red,3,NaN,911.784642431215,370.807518193712,NaN,NaN,688.215357568785,829.192481806288,1029.19248180629,711.784642431215,911.784642431215,370.807518193712,570.807518193712,488.215357568785,0,0,0,0,0,0,4,0,NaN,NaN,vertical,horizontal,horizontal,vertical,none,none
1c,3,100137,2,4,68,20,F,NA,variable,homogeneous,6,absent,0.875864028930664,1,horizontal,horizontal,1,0.717645788192749,green,2,NaN,1000.94274216971,756.993676208043,NaN,NaN,764.510859255183,852.518357529101,1000.94274216971,756.993676208043,1036.43188291453,504.475318678942,835.489140744817,347.4816424709,599.057257830286,443.006323791957,563.568117085469,695.524681321058,0,4,0,0,0,0,vertical,horizontal,horizontal,vertical,horizontal,horizontal
1c,3,100137,2,5,69,20,F,NA,variable,homogeneous,6,absent,0.668821096420288,1,horizontal,horizontal,1,0.764704103469849,green,4,NaN,895.524681321058,363.568117085469,NaN,NaN,704.475318678942,836.431882914531,956.993676208043,800.942742169714,1052.5183575291,564.510859255183,895.524681321058,363.568117085469,643.006323791957,399.057257830286,547.481642470899,635.489140744817,0,0,0,4,0,0,horizontal,vertical,vertical,horizontal,vertical,horizontal
1c,3,100137,2,6,70,20,F,NA,variable,homogeneous,6,absent,0.641642093658447,1,vertical,vertical,1,0.764704103469849,green,5,NaN,596.34794493794,446.537169096228,NaN,NaN,768.923317431687,853.099268668537,1003.65205506206,753.462830903772,1034.72873763037,500.363562235235,831.076682568313,346.900731331463,596.34794493794,446.537169096228,565.271262369628,699.636437764765,0,0,0,0,4,0,horizontal,vertical,vertical,vertical,vertical,horizontal
1c,3,100137,2,7,71,20,F,NA,variable,homogeneous,3,present,0.943436861038208,1,horizontal,horizontal,1,0.635293736457825,red,3,1,646.537169096228,396.34794493794,700.363562235235,834.728737630372,700.363562235235,834.728737630372,1053.09926866854,568.923317431687,646.537169096228,396.34794493794,0,0,0,0,0,0,0,0,4,NaN,NaN,NaN,vertical,horizontal,horizontal,none,none,none
1c,3,100137,2,8,72,20,F,NA,variable,homogeneous,5,absent,0.882453203201294,1,vertical,vertical,1,1.01176025867462,red,5,NaN,552.574589799621,661.690083377915,NaN,NaN,782.212099195248,854.378832816255,1036.43188291453,695.524681321058,963.910840470068,404.658667004661,664.870587620533,383.747735480111,552.574589799621,661.690083377915,0,0,0,0,0,0,4,NaN,horizontal,horizontal,vertical,horizontal,vertical,none
1c,3,100137,2,9,73,20,F,NA,variable,homogeneous,3,present,0.769776105880737,1,vertical,vertical,1,0.658822894096375,green,3,1,696.282156015671,367.045908301137,650.114760665419,806.299333565612,650.114760665419,806.299333565612,1053.60308331891,626.654758133252,696.282156015671,367.045908301137,0,0,0,0,0,0,0,0,4,NaN,NaN,NaN,vertical,vertical,vertical,none,none,none
1c,3,100137,2,10,74,20,F,NA,variable,homogeneous,5,absent,0.707351922988892,1,vertical,vertical,1,0.694116630554199,red,4,NaN,639.523300282292,401.827779828472,NaN,NaN,813.345668841951,854.650531362416,1046.31108570371,665.998856501143,938.882953928832,386.139005173917,639.523300282292,401.827779828472,561.936991243214,691.383827134052,0,0,0,0,0,4,0,NaN,vertical,vertical,vertical,vertical,horizontal,none
1c,3,100137,2,11,75,20,F,NA,variable,homogeneous,5,present,1.22734880447388,1,horizontal,horizontal,1,1.08234773159027,red,2,5,1051.12597701811,644.280285305067,570.807518193712,711.784642431215,835.489140744817,852.518357529101,1051.12597701811,644.280285305067,919.715248510402,374.848363820974,622.862115532956,416.568350913644,570.807518193712,711.784642431215,0,0,0,4,0,0,0,NaN,vertical,horizontal,vertical,horizontal,vertical,none
1c,3,100137,2,12,76,20,F,NA,variable,homogeneous,5,absent,0.79184103012085,1,vertical,vertical,1,0.976466522216797,green,5,NaN,545.155339110131,608.899371659138,NaN,NaN,729.712474266665,845.121732464271,1011.40458100154,742.594190385041,1000.94274216971,443.006323791957,712.784863451954,360.378381699593,545.155339110131,608.899371659138,0,0,0,0,0,0,4,NaN,vertical,vertical,horizontal,vertical,vertical,none
1c,3,100137,2,13,77,20,F,NA,variable,homogeneous,6,present,1.27870893478394,1,horizontal,horizontal,1,0.952937364578247,red,5,1,565.271262369628,500.363562235235,831.076682568313,853.099268668537,831.076682568313,853.099268668537,1034.72873763037,699.636437764765,1003.65205506206,446.537169096228,768.923317431687,346.900731331463,565.271262369628,500.363562235235,596.34794493794,753.462830903772,0,0,0,0,4,0,vertical,horizontal,vertical,horizontal,horizontal,horizontal
1c,3,100137,2,14,78,20,F,NA,variable,homogeneous,5,absent,0.723418951034546,1,vertical,vertical,1,0.952937364578247,green,5,NaN,591.116228706307,746.261991269517,NaN,NaN,874.554784704298,843.857712770574,1054.96116226488,604.450363641507,883.019879386575,358.892763222174,596.34794493794,446.537169096228,591.116228706307,746.261991269517,0,0,0,0,0,0,4,NaN,vertical,horizontal,vertical,horizontal,vertical,none
1c,3,100137,2,15,79,20,F,NA,variable,homogeneous,4,absent,1.19604086875916,1,horizontal,horizontal,1,0.894114470481873,red,1,NaN,632.704947607421,792.450942956807,NaN,NaN,632.704947607421,792.450942956807,992.450942956807,767.295052392579,967.295052392579,407.549057043193,607.549057043193,432.704947607421,0,0,0,0,4,0,0,0,NaN,NaN,horizontal,horizontal,vertical,horizontal,none,none
1c,3,100137,2,16,80,20,F,NA,variable,homogeneous,5,present,0.688247919082642,1,vertical,vertical,1,0.811762418746948,green,1,3,895.524681321058,836.431882914531,861.690083377915,352.574589799621,895.524681321058,836.431882914531,1054.37883281626,582.212099195248,861.690083377915,352.574589799621,583.747735480111,464.870587620533,604.658667004661,763.910840470068,0,0,4,0,0,0,0,NaN,vertical,vertical,vertical,vertical,horizontal,none
1c,3,100137,2,17,81,20,F,NA,variable,homogeneous,6,present,0.690319061279297,1,horizontal,horizontal,1,0.999995679855347,green,5,4,601.827779828472,439.523300282291,839.890788585259,348.13947314824,760.109211414741,851.86052685176,998.172220171528,760.476699717708,1038.06300875679,508.616172865948,839.890788585259,348.13947314824,601.827779828472,439.523300282291,561.936991243214,691.383827134052,0,0,0,0,4,0,horizontal,vertical,horizontal,vertical,horizontal,vertical
1c,3,100137,2,18,82,20,F,NA,variable,homogeneous,4,present,0.942951917648315,1,horizontal,horizontal,1,0.941172785758972,green,3,2,696.282156015671,367.045908301137,1032.95409169886,496.282156015671,903.717843984329,832.954091698863,1032.95409169886,496.282156015671,696.282156015671,367.045908301137,567.045908301137,703.717843984329,0,0,0,0,0,0,4,0,NaN,NaN,vertical,vertical,horizontal,vertical,none,none
1c,3,100137,2,19,83,20,F,NA,variable,homogeneous,5,absent,0.736087083816528,1,horizontal,horizontal,1,1.09411231040955,red,4,NaN,672.5,379.163522034968,NaN,NaN,773.345241866748,853.60308331891,1032.95409169886,703.717843984329,970.628304621509,410.498069503264,672.5,379.163522034968,550.57236181288,653.017481158529,0,0,0,0,0,4,0,NaN,horizontal,horizontal,vertical,horizontal,horizontal,none
1c,3,100137,2,20,84,20,F,NA,variable,homogeneous,5,absent,1.14816498756409,1,horizontal,horizontal,1,0.670587472915649,red,2,NaN,1029.19248180629,711.784642431215,NaN,NaN,764.510859255183,852.518357529101,1029.19248180629,711.784642431215,977.137884467044,416.568350913644,680.284751489598,374.848363820974,548.874022981887,644.280285305067,0,0,0,4,0,0,0,NaN,horizontal,horizontal,horizontal,horizontal,horizontal,none
1c,3,100137,2,21,85,20,F,NA,variable,homogeneous,4,present,1.04720497131348,1,vertical,vertical,1,1.01176025867462,green,2,1,1052.5183575291,635.489140744817,764.510859255183,852.518357529101,764.510859255183,852.518357529101,1052.5183575291,635.489140744817,835.489140744817,347.4816424709,547.481642470899,564.510859255183,0,0,0,0,0,4,0,0,NaN,NaN,horizontal,vertical,vertical,vertical,none,none
1c,3,100137,2,22,86,20,F,NA,variable,homogeneous,4,absent,0.908376932144165,1,horizontal,horizontal,1,0.776468682289124,green,1,NaN,899.636437764765,834.728737630372,NaN,NaN,899.636437764765,834.728737630372,1034.72873763037,500.363562235235,700.363562235235,365.271262369628,565.271262369628,699.636437764765,0,0,0,0,4,0,0,0,NaN,NaN,horizontal,horizontal,horizontal,vertical,none,none
1c,3,100137,2,23,87,20,F,NA,variable,homogeneous,5,present,0.620413064956665,1,vertical,vertical,1,0.682352051734924,red,4,2,653.738008730483,391.116228706307,1041.10723677783,683.019879386575,795.549636358493,854.96116226488,1041.10723677783,683.019879386575,953.462830903772,396.34794493794,653.738008730483,391.116228706307,556.142287229426,674.554784704298,0,0,0,0,0,4,0,NaN,horizontal,vertical,horizontal,vertical,horizontal,none
1c,3,100137,2,24,88,20,F,NA,variable,homogeneous,3,absent,0.721611022949219,1,vertical,vertical,1,0.635293736457825,green,2,NaN,1039.62161830041,512.784863451954,NaN,NaN,755.719714694933,851.125977018113,1039.62161830041,512.784863451954,604.658667004661,436.089159529932,0,0,0,0,0,0,0,4,0,NaN,NaN,NaN,vertical,vertical,vertical,none,none,none
1c,3,100137,2,25,89,20,F,NA,variable,homogeneous,4,absent,0.653512001037598,0,vertical,horizontal,1,0.858820734024048,green,3,NaN,650.114760665419,393.700666434388,NaN,NaN,949.885239334581,806.299333565612,1006.29933356561,450.114760665419,650.114760665419,393.700666434388,593.700666434388,749.885239334581,0,0,0,0,0,0,4,0,NaN,NaN,vertical,vertical,vertical,vertical,none,none
1c,3,100137,2,26,90,20,F,NA,variable,homogeneous,5,present,1.19087600708008,1,horizontal,horizontal,1,0.611764578819275,green,3,1,907.767656743878,368.891514305654,848.656293821019,850.314931779154,848.656293821019,850.314931779154,1053.09926866854,631.076682568313,907.767656743878,368.891514305654,613.504806087112,426.090418184063,576.971974679454,723.626453162816,0,0,0,0,4,0,0,NaN,vertical,vertical,horizontal,vertical,horizontal,none
1c,3,100137,2,27,91,20,F,NA,variable,homogeneous,3,present,1.47832202911377,1,horizontal,horizontal,1,0.976466522216797,green,1,3,903.717843984329,832.954091698863,546.39691668109,573.345241866748,903.717843984329,832.954091698863,949.885239334581,393.700666434388,546.39691668109,573.345241866748,0,0,0,0,0,0,4,0,0,NaN,NaN,NaN,horizontal,vertical,vertical,none,none,none
1c,3,100137,2,28,92,20,F,NA,variable,homogeneous,4,absent,0.832334995269775,1,vertical,vertical,1,0.811762418746948,red,3,NaN,791.100628340862,345.155339110131,NaN,NaN,808.899371659138,854.844660889869,1054.84466088987,591.100628340862,791.100628340862,345.155339110131,545.155339110131,608.899371659138,0,0,0,0,0,0,4,0,NaN,NaN,horizontal,horizontal,vertical,vertical,none,none
1c,3,100137,2,29,93,20,F,NA,variable,homogeneous,3,absent,1.19657707214355,0,vertical,horizontal,1,0.976466522216797,red,3,NaN,553.688914296288,665.998856501143,NaN,NaN,980.31222920257,780.31222920257,865.998856501143,353.688914296288,553.688914296288,665.998856501143,0,0,0,0,0,0,0,0,4,NaN,NaN,NaN,vertical,horizontal,vertical,none,none,none
1c,3,100137,2,30,94,20,F,NA,variable,homogeneous,5,absent,1.03631997108459,1,horizontal,horizontal,1,0.976466522216797,green,1,NaN,844.280285305067,851.125977018113,NaN,NaN,844.280285305067,851.125977018113,1052.5183575291,635.489140744817,911.784642431215,370.807518193712,616.568350913644,422.862115532956,574.848363820974,719.715248510402,0,0,4,0,0,0,0,NaN,horizontal,vertical,horizontal,vertical,vertical,none
1c,3,100137,2,31,95,20,F,NA,variable,homogeneous,6,present,0.935576200485229,1,vertical,vertical,1,0.717645788192749,green,5,2,636.089159529932,404.658667004661,963.910840470068,795.341332995339,712.784863451954,839.621618300407,963.910840470068,795.341332995339,1051.12597701811,555.719714694933,887.215136548046,360.378381699593,636.089159529932,404.658667004661,548.874022981887,644.280285305067,0,0,0,0,4,0,horizontal,horizontal,vertical,horizontal,vertical,horizontal
1c,3,100137,2,32,96,20,F,NA,variable,homogeneous,5,present,1.36030316352844,1,horizontal,horizontal,1,1.08234773159027,red,4,3,657.405809614959,388.595418998464,956.993676208043,399.057257830286,791.100628340862,854.844660889869,1039.62161830041,687.215136548046,956.993676208043,399.057257830286,657.405809614959,388.595418998464,554.878267535729,670.287525733335,0,0,0,0,0,4,0,NaN,vertical,horizontal,horizontal,horizontal,horizontal,none
1c,3,100137,2,33,97,20,F,NA,variable,homogeneous,3,present,0.81093692779541,1,vertical,vertical,1,0.976466522216797,red,2,1,986.495193912888,426.090418184063,857.362518857686,848.464366520235,857.362518857686,848.464366520235,986.495193912888,426.090418184063,556.142287229426,525.445215295702,0,0,0,0,0,0,0,4,0,NaN,NaN,NaN,vertical,vertical,horizontal,none,none,none
1c,3,100137,2,34,98,20,F,NA,variable,homogeneous,5,absent,1.14745497703552,1,horizontal,horizontal,1,0.999995679855347,green,2,NaN,1054.0296480134,622.224714400653,NaN,NaN,857.362518857686,848.464366520235,1054.0296480134,622.224714400653,899.636437764765,365.271262369628,607.549057043193,432.704947607421,581.422338320961,731.334709102064,0,0,0,4,0,0,0,NaN,horizontal,horizontal,horizontal,vertical,vertical,none
1c,3,100137,2,35,99,20,F,NA,variable,homogeneous,6,present,1.49052906036377,0,vertical,horizontal,1,0.6,red,1,2,899.636437764765,834.728737630372,1053.09926866854,631.076682568313,899.636437764765,834.728737630372,1053.09926866854,631.076682568313,953.462830903772,396.34794493794,700.363562235235,365.271262369628,546.900731331463,568.923317431687,646.537169096228,803.65205506206,4,0,0,0,0,0,vertical,horizontal,horizontal,horizontal,vertical,horizontal
1c,3,100137,2,36,100,20,F,NA,variable,homogeneous,6,present,0.79880690574646,1,vertical,vertical,1,0.717645788192749,green,2,1,980.31222920257,780.31222920257,734.001143498857,846.311085703712,734.001143498857,846.311085703712,980.31222920257,780.31222920257,1046.31108570371,534.001143498857,865.998856501143,353.688914296288,619.68777079743,419.68777079743,553.688914296288,665.998856501143,0,4,0,0,0,0,horizontal,vertical,horizontal,horizontal,horizontal,horizontal
1c,3,100137,2,37,101,20,F,NA,variable,homogeneous,4,present,1.01348495483398,1,horizontal,horizontal,1,0.717645788192749,green,1,4,963.910840470068,795.341332995339,604.658667004661,763.910840470068,963.910840470068,795.341332995339,995.341332995339,436.089159529932,636.089159529932,404.658667004661,604.658667004661,763.910840470068,0,0,0,0,4,0,0,0,NaN,NaN,horizontal,horizontal,horizontal,vertical,none,none
1c,3,100137,2,38,102,20,F,NA,variable,homogeneous,5,present,1.11059093475342,1,vertical,vertical,1,1.0235248374939,green,2,4,995.341332995339,763.910840470068,738.309916622085,352.574589799621,704.475318678942,836.431882914531,995.341332995339,763.910840470068,1016.25226451989,464.870587620533,738.309916622085,352.574589799621,545.621167183745,582.212099195248,0,0,0,4,0,0,0,NaN,horizontal,vertical,horizontal,vertical,horizontal,none
1c,3,100137,2,39,103,20,F,NA,variable,homogeneous,3,absent,1.04257392883301,1,vertical,vertical,1,0.694116630554199,red,2,NaN,1038.06300875679,691.383827134052,NaN,NaN,601.827779828472,760.476699717708,1038.06300875679,691.383827134052,760.109211414741,348.13947314824,0,0,0,0,0,0,0,4,0,NaN,NaN,NaN,vertical,vertical,vertical,none,none,none
1c,3,100137,2,40,104,20,F,NA,variable,homogeneous,3,absent,0.652097940444946,1,horizontal,horizontal,1,0.62352915763855,red,1,NaN,721.200666434388,842.519411655264,NaN,NaN,721.200666434388,842.519411655264,1049.42763818712,546.982518841471,629.371695378491,410.498069503264,0,0,0,0,0,0,4,0,0,NaN,NaN,NaN,horizontal,vertical,vertical,none,none,none
1c,3,100137,2,41,105,20,F,NA,variable,homogeneous,4,present,0.878030061721802,1,vertical,vertical,1,0.635293736457825,red,2,4,1000.94274216971,756.993676208043,599.057257830286,443.006323791957,643.006323791957,800.942742169714,1000.94274216971,756.993676208043,956.993676208043,399.057257830286,599.057257830286,443.006323791957,0,0,0,0,0,4,0,0,NaN,NaN,horizontal,vertical,horizontal,horizontal,none,none
1c,3,100137,2,42,106,20,F,NA,variable,homogeneous,6,present,1.02969789505005,1,horizontal,horizontal,1,1.09411231040955,green,3,5,963.910840470068,404.658667004661,548.874022981887,555.719714694933,887.215136548046,839.621618300407,1051.12597701811,644.280285305067,963.910840470068,404.658667004661,712.784863451954,360.378381699593,548.874022981887,555.719714694933,636.089159529932,795.341332995339,0,0,4,0,0,0,horizontal,horizontal,horizontal,horizontal,horizontal,vertical
1c,3,100137,2,43,107,20,F,NA,variable,homogeneous,4,present,0.902782917022705,1,vertical,vertical,1,0.611764578819275,green,4,2,546.39691668109,626.654758133252,1053.60308331891,573.345241866748,826.654758133252,853.60308331891,1053.60308331891,573.345241866748,773.345241866748,346.39691668109,546.39691668109,626.654758133252,0,0,0,0,0,0,0,4,NaN,NaN,vertical,horizontal,horizontal,vertical,none,none
1c,3,100137,2,44,108,20,F,NA,variable,homogeneous,4,present,1.19869494438171,1,horizontal,horizontal,1,0.894114470481873,red,2,1,1053.09926866854,568.923317431687,831.076682568313,853.099268668537,831.076682568313,853.099268668537,1053.09926866854,568.923317431687,768.923317431687,346.900731331463,546.900731331463,631.076682568313,0,0,0,0,0,4,0,0,NaN,NaN,vertical,horizontal,horizontal,horizontal,none,none
1c,3,100137,2,45,109,20,F,NA,variable,homogeneous,6,present,0.843142986297607,1,vertical,vertical,1,0.999995679855347,red,5,6,604.658667004661,436.089159529932,560.378381699593,687.215136548046,755.719714694933,851.125977018113,995.341332995339,763.910840470068,1039.62161830041,512.784863451954,844.280285305067,348.874022981887,604.658667004661,436.089159529932,560.378381699593,687.215136548046,0,0,0,0,4,0,horizontal,vertical,vertical,vertical,vertical,vertical
1c,3,100137,2,46,110,20,F,NA,variable,homogeneous,4,absent,0.668984889984131,1,vertical,vertical,1,1.070583152771,green,2,NaN,1043.85771277057,525.445215295702,NaN,NaN,874.554784704298,843.857712770574,1043.85771277057,525.445215295702,725.445215295702,356.142287229426,556.142287229426,674.554784704298,0,0,0,0,0,4,0,0,NaN,NaN,horizontal,vertical,horizontal,horizontal,none,none
1c,3,100137,2,47,111,20,F,NA,variable,homogeneous,5,present,1.0935389995575,1,horizontal,horizontal,1,0.717645788192749,green,1,3,725.445215295702,843.857712770574,1003.65205506206,446.537169096228,725.445215295702,843.857712770574,1008.88377129369,746.261991269517,1003.65205506206,446.537169096228,716.980120613425,358.892763222174,545.03883773512,604.450363641507,0,0,4,0,0,0,0,NaN,horizontal,vertical,vertical,horizontal,vertical,none
1c,3,100137,2,48,112,20,F,NA,variable,homogeneous,3,absent,1.22421717643738,1,vertical,vertical,1,0.635293736457825,green,1,NaN,721.200666434388,842.519411655264,NaN,NaN,721.200666434388,842.519411655264,1049.42763818712,546.982518841471,629.371695378491,410.498069503264,0,0,0,0,0,0,4,0,0,NaN,NaN,NaN,vertical,vertical,vertical,none,none,none
1c,3,100137,2,49,113,20,F,NA,variable,homogeneous,3,absent,0.916077136993408,1,horizontal,horizontal,1,0.752939524650574,green,1,NaN,989.501930496736,770.628304621509,NaN,NaN,989.501930496736,770.628304621509,853.017481158529,350.57236181288,557.480588344736,678.799333565612,0,0,0,0,0,0,4,0,0,NaN,NaN,NaN,horizontal,horizontal,vertical,none,none,none
1c,3,100137,2,50,114,20,F,NA,variable,homogeneous,6,absent,0.801423072814941,1,vertical,vertical,1,0.941172785758972,red,3,NaN,986.495193912888,426.090418184063,NaN,NaN,857.362518857686,848.464366520235,1043.85771277057,674.554784704298,986.495193912888,426.090418184063,742.637481142314,351.535633479765,556.142287229426,525.445215295702,613.504806087112,773.909581815937,0,0,4,0,0,0,vertical,vertical,vertical,horizontal,horizontal,horizontal
1c,3,100137,2,51,115,20,F,NA,variable,homogeneous,3,absent,1.29734086990356,1,horizontal,horizontal,1,1.01176025867462,green,2,NaN,1018.57766167904,468.665290897936,NaN,NaN,804.450363641507,854.96116226488,1018.57766167904,468.665290897936,576.971974679454,476.373546837184,0,0,0,0,0,0,0,4,0,NaN,NaN,NaN,horizontal,horizontal,vertical,none,none,none
1c,3,100137,2,52,116,20,F,NA,variable,homogeneous,6,present,0.876765966415405,1,horizontal,horizontal,1,0.635293736457825,red,5,4,588.595418998464,457.40580961496,817.787900804752,345.621167183745,782.212099195248,854.378832816255,1011.40458100154,742.594190385041,1029.19248180629,488.215357568785,817.787900804752,345.621167183745,588.595418998464,457.40580961496,570.807518193712,711.784642431215,0,0,0,0,4,0,horizontal,vertical,vertical,horizontal,horizontal,horizontal
1c,3,100137,2,53,117,20,F,NA,variable,homogeneous,6,absent,1.30975294113159,1,horizontal,horizontal,1,0.764704103469849,red,5,NaN,570.807518193712,488.215357568785,NaN,NaN,817.787900804752,854.378832816255,1029.19248180629,711.784642431215,1011.40458100154,457.40580961496,782.212099195248,345.621167183745,570.807518193712,488.215357568785,588.595418998464,742.594190385041,0,0,0,0,4,0,vertical,vertical,vertical,vertical,horizontal,horizontal
1c,3,100137,2,54,118,20,F,NA,variable,homogeneous,4,absent,0.95867395401001,1,vertical,vertical,1,0.729410367012024,red,2,NaN,1031.10848569435,492.232343256122,NaN,NaN,907.767656743878,831.108485694346,1031.10848569435,492.232343256122,692.232343256122,368.891514305654,568.891514305654,707.767656743878,0,0,0,0,0,4,0,0,NaN,NaN,vertical,vertical,horizontal,vertical,none,none
1c,3,100137,2,55,119,20,F,NA,variable,homogeneous,3,present,1.20200109481812,1,vertical,vertical,1,0.999995679855347,red,3,1,546.900731331463,568.923317431687,899.636437764765,834.728737630372,899.636437764765,834.728737630372,953.462830903772,396.34794493794,546.900731331463,568.923317431687,0,0,0,0,0,0,0,0,4,NaN,NaN,NaN,vertical,vertical,vertical,none,none,none
1c,3,100137,2,56,120,20,F,NA,variable,homogeneous,6,absent,NaN,0,vertical,none,0,0.811762418746948,green,2,NaN,973.909581815937,786.495193912888,NaN,NaN,725.445215295702,843.857712770574,973.909581815937,786.495193912888,1048.46436652023,542.637481142314,874.554784704298,356.142287229426,626.090418184063,413.504806087112,551.535633479765,657.362518857686,0,4,0,0,0,0,vertical,vertical,vertical,vertical,vertical,vertical
1c,3,100137,2,57,121,20,F,NA,variable,homogeneous,4,present,1.08401799201965,1,vertical,vertical,1,0.658822894096375,red,2,1,989.501930496736,429.371695378491,970.628304621509,789.501930496736,970.628304621509,789.501930496736,989.501930496736,429.371695378491,629.371695378491,410.498069503264,610.498069503264,770.628304621509,0,0,0,0,0,4,0,0,NaN,NaN,horizontal,vertical,vertical,horizontal,none,none
1c,3,100137,2,58,122,20,F,NA,variable,homogeneous,3,absent,0.840744972229004,1,horizontal,horizontal,1,0.941172785758972,red,3,NaN,688.215357568785,370.807518193712,NaN,NaN,657.405809614959,811.404581001536,1054.37883281626,617.787900804752,688.215357568785,370.807518193712,0,0,0,0,0,0,0,0,4,NaN,NaN,NaN,vertical,vertical,horizontal,none,none,none
1c,3,100137,2,59,123,20,F,NA,variable,homogeneous,3,present,1.18770694732666,1,horizontal,horizontal,1,1.09411231040955,green,2,1,1043.85771277057,525.445215295702,742.637481142314,848.464366520235,742.637481142314,848.464366520235,1043.85771277057,525.445215295702,613.504806087112,426.090418184063,0,0,0,0,0,0,0,4,0,NaN,NaN,NaN,vertical,horizontal,horizontal,none,none,none
1c,3,100137,2,60,124,20,F,NA,variable,homogeneous,5,present,0.693527936935425,1,vertical,vertical,1,0.894114470481873,red,3,5,1027.20666366803,484.232422566416,548.13947314824,560.109211414741,684.232422566416,827.206663668034,980.31222920257,780.31222920257,1027.20666366803,484.232422566416,760.109211414741,348.13947314824,548.13947314824,560.109211414741,0,0,0,0,4,0,0,NaN,horizontal,horizontal,vertical,vertical,vertical,none
1c,3,100137,2,61,125,20,F,NA,variable,homogeneous,3,present,0.693727970123291,1,vertical,vertical,1,0.894114470481873,green,3,1,545.155339110131,608.899371659138,935.129412379467,816.252264519889,935.129412379467,816.252264519889,919.715248510402,374.848363820974,545.155339110131,608.899371659138,0,0,0,0,0,0,0,0,4,NaN,NaN,NaN,vertical,vertical,vertical,none,none,none
1c,3,100137,2,62,126,20,F,NA,variable,homogeneous,3,present,0.864979028701782,1,horizontal,horizontal,1,0.658822894096375,red,1,2,636.089159529932,795.341332995339,1051.12597701811,644.280285305067,636.089159529932,795.341332995339,1051.12597701811,644.280285305067,712.784863451954,360.378381699593,0,0,0,0,0,0,4,0,0,NaN,NaN,NaN,horizontal,horizontal,vertical,none,none,none
1c,3,100137,2,63,127,20,F,NA,variable,homogeneous,6,absent,1.30036592483521,1,horizontal,horizontal,1,0.694116630554199,red,2,NaN,1011.40458100154,742.594190385041,NaN,NaN,782.212099195248,854.378832816255,1011.40458100154,742.594190385041,1029.19248180629,488.215357568785,817.787900804752,345.621167183745,588.595418998464,457.40580961496,570.807518193712,711.784642431215,0,4,0,0,0,0,vertical,horizontal,horizontal,vertical,horizontal,horizontal
1c,3,100137,2,64,128,20,F,NA,variable,homogeneous,6,absent,0.8788161277771,1,vertical,vertical,1,1.03528941631317,red,4,NaN,865.998856501143,353.688914296288,NaN,NaN,734.001143498857,846.311085703712,980.31222920257,780.31222920257,1046.31108570371,534.001143498857,865.998856501143,353.688914296288,619.68777079743,419.68777079743,553.688914296288,665.998856501143,0,0,0,4,0,0,horizontal,vertical,vertical,vertical,vertical,vertical
1c,3,100137,3,1,129,20,F,NA,variable,homogeneous,6,present,0.969844102859497,1,horizontal,horizontal,1,0.705881209373474,red,3,2,1031.10848569435,492.232343256122,1008.88377129369,746.261991269517,777.775285599347,854.029648013395,1008.88377129369,746.261991269517,1031.10848569435,492.232343256122,822.224714400653,345.970351986605,591.116228706307,453.738008730483,568.891514305654,707.767656743878,0,0,4,0,0,0,horizontal,horizontal,horizontal,horizontal,horizontal,horizontal
1c,3,100137,3,2,130,20,F,NA,variable,homogeneous,3,absent,0.87999415397644,1,vertical,vertical,1,0.729410367012024,green,1,NaN,688.215357568785,829.192481806288,NaN,NaN,688.215357568785,829.192481806288,1054.37883281626,582.212099195248,657.405809614959,388.595418998464,0,0,0,0,0,0,4,0,0,NaN,NaN,NaN,vertical,vertical,vertical,none,none,none
1c,3,100137,3,3,131,20,F,NA,variable,homogeneous,3,absent,1.17990803718567,1,horizontal,horizontal,1,0.705881209373474,green,3,NaN,545.03883773512,595.549636358493,NaN,NaN,923.626453162816,823.028025320546,931.334709102064,381.422338320961,545.03883773512,595.549636358493,0,0,0,0,0,0,0,0,4,NaN,NaN,NaN,horizontal,vertical,horizontal,none,none,none
1c,3,100137,3,4,132,20,F,NA,variable,homogeneous,3,present,1.18640398979187,1,vertical,vertical,1,0.741174945831299,red,1,3,676.373546837184,823.028025320546,668.665290897936,381.422338320961,676.373546837184,823.028025320546,1054.96116226488,595.549636358493,668.665290897936,381.422338320961,0,0,0,0,0,0,4,0,0,NaN,NaN,NaN,vertical,horizontal,vertical,none,none,none
1c,3,100137,3,5,133,20,F,NA,variable,homogeneous,3,absent,0.889670848846436,1,vertical,vertical,1,0.964701943397522,red,1,NaN,588.595418998464,742.594190385041,NaN,NaN,588.595418998464,742.594190385041,1029.19248180629,711.784642431215,782.212099195248,345.621167183745,0,0,0,0,0,0,4,0,0,NaN,NaN,NaN,vertical,horizontal,horizontal,none,none,none
1c,3,100137,3,6,134,20,F,NA,variable,homogeneous,5,present,1.5320360660553,1,horizontal,horizontal,1,1.0235248374939,red,1,5,704.475318678942,836.431882914531,545.621167183745,582.212099195248,704.475318678942,836.431882914531,995.341332995339,763.910840470068,1016.25226451989,464.870587620533,738.309916622085,352.574589799621,545.621167183745,582.212099195248,0,0,4,0,0,0,0,NaN,horizontal,horizontal,horizontal,vertical,vertical,none
1c,3,100137,3,7,135,20,F,NA,variable,homogeneous,5,absent,1.06052184104919,1,vertical,vertical,1,0.882349891662598,red,5,NaN,548.13947314824,639.890788585259,NaN,NaN,760.109211414741,851.86052685176,1027.20666366803,715.767577433584,980.31222920257,419.68777079743,684.232422566416,372.793336331966,548.13947314824,639.890788585259,0,0,0,0,0,0,4,NaN,horizontal,vertical,horizontal,vertical,vertical,none
1c,3,100137,3,8,136,20,F,NA,variable,homogeneous,3,absent,0.878939867019653,1,horizontal,horizontal,1,1.04705399513245,green,1,NaN,1011.40458100154,742.594190385041,NaN,NaN,1011.40458100154,742.594190385041,817.787900804752,345.621167183745,570.807518193712,711.784642431215,0,0,0,0,0,0,4,0,0,NaN,NaN,NaN,horizontal,vertical,vertical,none,none,none
1c,3,100137,3,9,137,20,F,NA,variable,homogeneous,5,present,0.689842224121094,1,vertical,vertical,1,0.858820734024048,green,2,1,1034.72873763037,699.636437764765,777.775285599347,854.029648013395,777.775285599347,854.029648013395,1034.72873763037,699.636437764765,967.295052392579,407.549057043193,668.665290897936,381.422338320961,551.535633479765,657.362518857686,0,0,0,4,0,0,0,NaN,horizontal,vertical,horizontal,vertical,horizontal,none
1c,3,100137,3,10,138,20,F,NA,variable,homogeneous,5,present,0.704437971115112,1,vertical,vertical,1,0.635293736457825,green,4,5,646.537169096228,396.34794493794,558.892763222174,683.019879386575,804.450363641507,854.96116226488,1043.85771277057,674.554784704298,946.261991269517,391.116228706307,646.537169096228,396.34794493794,558.892763222174,683.019879386575,0,0,0,0,0,4,0,NaN,vertical,horizontal,horizontal,vertical,horizontal,none
1c,3,100137,3,11,139,20,F,NA,variable,homogeneous,5,absent,0.558040142059326,1,vertical,vertical,1,0.964701943397522,green,2,NaN,1029.19248180629,711.784642431215,NaN,NaN,764.510859255183,852.518357529101,1029.19248180629,711.784642431215,977.137884467044,416.568350913644,680.284751489598,374.848363820974,548.874022981887,644.280285305067,0,0,0,4,0,0,0,NaN,horizontal,vertical,horizontal,vertical,vertical,none
1c,3,100137,3,12,140,20,F,NA,variable,homogeneous,3,absent,0.57937479019165,1,vertical,vertical,1,0.694116630554199,red,2,NaN,911.784642431215,370.807518193712,NaN,NaN,942.594190385041,811.404581001536,911.784642431215,370.807518193712,545.621167183745,617.787900804752,0,0,0,0,0,0,0,4,0,NaN,NaN,NaN,vertical,vertical,horizontal,none,none,none
1c,3,100137,3,13,141,20,F,NA,variable,homogeneous,6,absent,0.545009136199951,1,vertical,vertical,1,0.694116630554199,green,1,NaN,729.712474266665,845.121732464271,NaN,NaN,729.712474266665,845.121732464271,977.137884467044,783.431649086356,1047.42541020038,538.309916622085,870.287525733335,354.878267535729,622.862115532956,416.568350913644,552.574589799621,661.690083377915,4,0,0,0,0,0,vertical,vertical,vertical,horizontal,vertical,horizontal
1c,3,100137,3,14,142,20,F,NA,variable,homogeneous,3,present,0.739914894104004,1,vertical,vertical,1,1.01176025867462,green,3,1,560.378381699593,687.215136548046,995.341332995339,763.910840470068,995.341332995339,763.910840470068,844.280285305067,348.874022981887,560.378381699593,687.215136548046,0,0,0,0,0,0,0,0,4,NaN,NaN,NaN,horizontal,vertical,vertical,none,none,none
1c,3,100137,3,15,143,20,F,NA,variable,homogeneous,6,absent,0.748044013977051,1,horizontal,horizontal,1,0.823526997566223,green,2,NaN,1050.31493177915,648.656293821019,NaN,NaN,883.019879386575,841.107236777826,1050.31493177915,648.656293821019,967.295052392579,407.549057043193,716.980120613425,358.892763222174,549.685068220846,551.343706178981,632.704947607421,792.450942956807,0,4,0,0,0,0,horizontal,horizontal,horizontal,vertical,vertical,vertical
1c,3,100137,3,16,144,20,F,NA,variable,homogeneous,6,absent,1.00862097740173,1,horizontal,horizontal,1,1.08234773159027,green,5,NaN,548.13947314824,560.109211414741,NaN,NaN,891.383827134052,838.063008756786,1051.86052685176,639.890788585259,960.476699717708,401.827779828472,708.616172865948,361.936991243214,548.13947314824,560.109211414741,639.523300282292,798.172220171528,0,0,0,0,4,0,vertical,vertical,horizontal,vertical,horizontal,horizontal
1c,3,100137,3,17,145,20,F,NA,variable,homogeneous,4,present,0.756613969802856,1,vertical,vertical,1,0.6,green,3,1,622.862115532956,416.568350913644,977.137884467044,783.431649086356,977.137884467044,783.431649086356,983.431649086356,422.862115532956,622.862115532956,416.568350913644,616.568350913644,777.137884467044,0,0,0,0,0,0,4,0,NaN,NaN,horizontal,horizontal,vertical,vertical,none,none
1c,3,100137,3,18,146,20,F,NA,variable,homogeneous,4,absent,1.22477412223816,1,vertical,vertical,1,0.62352915763855,green,1,NaN,773.345241866748,853.60308331891,NaN,NaN,773.345241866748,853.60308331891,1053.60308331891,626.654758133252,826.654758133252,346.39691668109,546.39691668109,573.345241866748,0,0,0,0,4,0,0,0,NaN,NaN,vertical,horizontal,horizontal,vertical,none,none
1c,3,100137,3,19,147,20,F,NA,variable,homogeneous,3,present,1.0388560295105,1,horizontal,horizontal,1,0.870585312843323,green,1,3,839.890788585259,851.86052685176,561.936991243214,508.616172865948,839.890788585259,851.86052685176,998.172220171528,439.523300282291,561.936991243214,508.616172865948,0,0,0,0,0,0,4,0,0,NaN,NaN,NaN,horizontal,horizontal,vertical,none,none,none
1c,3,100137,3,20,148,20,F,NA,variable,homogeneous,6,present,1.97914290428162,1,vertical,vertical,1,0.764704103469849,green,5,3,558.892763222174,516.980120613425,992.450942956807,432.704947607421,848.656293821019,850.314931779154,1041.10723677783,683.019879386575,992.450942956807,432.704947607421,751.343706178981,349.685068220846,558.892763222174,516.980120613425,607.549057043193,767.295052392579,0,0,0,0,4,0,vertical,vertical,horizontal,horizontal,vertical,vertical
1c,3,100137,3,21,149,20,F,NA,variable,homogeneous,4,present,0.935036897659302,1,horizontal,horizontal,1,0.799997839927673,red,1,3,777.775285599347,854.029648013395,822.224714400653,345.970351986605,777.775285599347,854.029648013395,1054.0296480134,622.224714400653,822.224714400653,345.970351986605,545.970351986605,577.775285599347,0,0,0,0,4,0,0,0,NaN,NaN,horizontal,vertical,horizontal,vertical,none,none
1c,3,100137,3,22,150,20,F,NA,variable,homogeneous,3,present,0.715067863464355,1,horizontal,horizontal,1,0.670587472915649,red,2,3,1011.40458100154,457.40580961496,570.807518193712,488.215357568785,817.787900804752,854.378832816255,1011.40458100154,457.40580961496,570.807518193712,488.215357568785,0,0,0,0,0,0,0,4,0,NaN,NaN,NaN,horizontal,horizontal,vertical,none,none,none
1c,3,100137,3,23,151,20,F,NA,variable,homogeneous,6,present,0.644685983657837,1,horizontal,horizontal,1,0.952937364578247,red,3,2,949.885239334581,393.700666434388,1053.60308331891,626.654758133252,903.717843984329,832.954091698863,1053.60308331891,626.654758133252,949.885239334581,393.700666434388,696.282156015671,367.045908301137,546.39691668109,573.345241866748,650.114760665419,806.299333565612,0,0,4,0,0,0,vertical,horizontal,horizontal,horizontal,horizontal,vertical
1c,3,100137,3,24,152,20,F,NA,variable,homogeneous,4,absent,0.804369926452637,1,horizontal,horizontal,1,0.729410367012024,green,1,NaN,632.704947607421,792.450942956807,NaN,NaN,632.704947607421,792.450942956807,992.450942956807,767.295052392579,967.295052392579,407.549057043193,607.549057043193,432.704947607421,0,0,0,0,4,0,0,0,NaN,NaN,horizontal,horizontal,horizontal,vertical,none,none
1c,3,100137,3,25,153,20,F,NA,variable,homogeneous,6,present,0.624743938446045,1,vertical,vertical,1,0.999995679855347,red,4,5,835.489140744817,347.4816424709,599.057257830286,443.006323791957,764.510859255183,852.518357529101,1000.94274216971,756.993676208043,1036.43188291453,504.475318678942,835.489140744817,347.4816424709,599.057257830286,443.006323791957,563.568117085469,695.524681321058,0,0,0,4,0,0,vertical,vertical,horizontal,vertical,horizontal,vertical
1c,3,100137,3,26,154,20,F,NA,variable,homogeneous,3,present,1.69281888008118,1,horizontal,horizontal,1,0.776468682289124,red,2,3,1038.06300875679,691.383827134052,760.109211414741,348.13947314824,601.827779828472,760.476699717708,1038.06300875679,691.383827134052,760.109211414741,348.13947314824,0,0,0,0,0,0,0,4,0,NaN,NaN,NaN,horizontal,horizontal,horizontal,none,none,none
1c,3,100137,3,27,155,20,F,NA,variable,homogeneous,4,present,0.760718107223511,1,horizontal,horizontal,1,0.682352051734924,red,4,3,588.595418998464,457.40580961496,942.594190385041,388.595418998464,657.405809614959,811.404581001536,1011.40458100154,742.594190385041,942.594190385041,388.595418998464,588.595418998464,457.40580961496,0,0,0,0,0,0,0,4,NaN,NaN,vertical,vertical,horizontal,horizontal,none,none
1c,3,100137,3,28,156,20,F,NA,variable,homogeneous,6,present,1.4393310546875,1,horizontal,horizontal,1,0.764704103469849,green,6,3,558.892763222174,683.019879386575,1041.10723677783,516.980120613425,751.343706178981,850.314931779154,992.450942956807,767.295052392579,1041.10723677783,516.980120613425,848.656293821019,349.685068220846,607.549057043193,432.704947607421,558.892763222174,683.019879386575,0,0,0,0,0,4,vertical,horizontal,horizontal,horizontal,vertical,horizontal
1c,3,100137,3,29,157,20,F,NA,variable,homogeneous,3,absent,0.708375930786133,1,horizontal,horizontal,1,1.01176025867462,red,3,NaN,729.712474266665,354.878267535729,NaN,NaN,622.862115532956,783.431649086356,1047.42541020038,661.690083377915,729.712474266665,354.878267535729,0,0,0,0,0,0,0,0,4,NaN,NaN,NaN,horizontal,vertical,horizontal,none,none,none
1c,3,100137,3,30,158,20,F,NA,variable,homogeneous,5,present,0.696895122528076,1,vertical,vertical,1,0.894114470481873,red,5,4,554.878267535729,529.712474266665,791.100628340862,345.155339110131,657.405809614959,811.404581001536,956.993676208043,800.942742169714,1039.62161830041,512.784863451954,791.100628340862,345.155339110131,554.878267535729,529.712474266665,0,0,0,0,0,0,4,NaN,horizontal,vertical,horizontal,vertical,vertical,none
1c,3,100137,3,31,159,20,F,NA,variable,homogeneous,4,absent,0.718100786209106,1,vertical,vertical,1,0.952937364578247,red,2,NaN,1025.15163617903,719.715248510402,NaN,NaN,680.284751489598,825.151636179026,1025.15163617903,719.715248510402,919.715248510402,374.848363820974,574.848363820974,480.284751489598,0,0,0,0,0,4,0,0,NaN,NaN,horizontal,vertical,horizontal,vertical,none,none
1c,3,100137,3,32,160,20,F,NA,variable,homogeneous,5,present,0.779218912124634,1,vertical,vertical,1,0.729410367012024,red,5,4,626.090418184063,786.495193912888,568.891514305654,492.232343256122,923.626453162816,823.028025320546,1050.31493177915,551.343706178981,831.076682568313,346.900731331463,568.891514305654,492.232343256122,626.090418184063,786.495193912888,0,0,0,0,0,0,4,NaN,horizontal,horizontal,horizontal,horizontal,vertical,none
1c,3,100137,3,33,161,20,F,NA,variable,homogeneous,3,present,1.85004091262817,1,horizontal,horizontal,1,0.941172785758972,green,1,2,839.890788585259,851.86052685176,998.172220171528,439.523300282291,839.890788585259,851.86052685176,998.172220171528,439.523300282291,561.936991243214,508.616172865948,0,0,0,0,0,0,4,0,0,NaN,NaN,NaN,horizontal,vertical,horizontal,none,none,none
1c,3,100137,3,34,162,20,F,NA,variable,homogeneous,3,present,1.34405589103699,1,vertical,vertical,1,0.6470583152771,green,2,1,1054.96116226488,595.549636358493,676.373546837184,823.028025320546,676.373546837184,823.028025320546,1054.96116226488,595.549636358493,668.665290897936,381.422338320961,0,0,0,0,0,0,0,4,0,NaN,NaN,NaN,horizontal,vertical,horizontal,none,none,none
1c,3,100137,3,35,163,20,F,NA,variable,homogeneous,6,present,1.55092787742615,1,vertical,vertical,1,0.999995679855347,green,2,3,1018.57766167904,731.334709102064,1023.02802532055,476.373546837184,795.549636358493,854.96116226488,1018.57766167904,731.334709102064,1023.02802532055,476.373546837184,804.450363641507,345.03883773512,581.422338320961,468.665290897936,576.971974679454,723.626453162816,0,4,0,0,0,0,horizontal,vertical,horizontal,horizontal,vertical,horizontal
1c,3,100137,3,36,164,20,F,NA,variable,homogeneous,6,present,1.86047983169556,1,horizontal,horizontal,1,0.905879049301147,green,5,1,661.117046071168,386.139005173917,684.232422566416,827.206663668034,684.232422566416,827.206663668034,938.882953928832,813.860994826083,1054.65053136242,586.654331158049,915.767577433584,372.793336331966,661.117046071168,386.139005173917,545.349468637584,613.345668841951,0,0,0,0,4,0,vertical,vertical,horizontal,horizontal,horizontal,horizontal
1c,3,100137,3,37,165,20,F,NA,variable,homogeneous,6,absent,NaN,0,horizontal,none,0,1.09411231040955,red,2,NaN,942.594190385041,811.404581001536,NaN,NaN,688.215357568785,829.192481806288,942.594190385041,811.404581001536,1054.37883281626,582.212099195248,911.784642431215,370.807518193712,657.405809614959,388.595418998464,545.621167183745,617.787900804752,0,4,0,0,0,0,horizontal,horizontal,horizontal,vertical,vertical,horizontal
1c,3,100137,3,38,166,20,F,NA,variable,homogeneous,5,present,0.724242925643921,1,horizontal,horizontal,1,0.799997839927673,green,2,1,1053.60308331891,626.654758133252,853.017481158529,849.42763818712,853.017481158529,849.42763818712,1053.60308331891,626.654758133252,903.717843984329,367.045908301137,610.498069503264,429.371695378491,579.163522034968,727.5,0,0,0,4,0,0,0,NaN,horizontal,horizontal,vertical,horizontal,vertical,none
1c,3,100137,3,39,167,20,F,NA,variable,homogeneous,6,present,1.0681209564209,1,vertical,vertical,1,1.070583152771,red,6,3,545.621167183745,617.787900804752,1054.37883281626,582.212099195248,688.215357568785,829.192481806288,942.594190385041,811.404581001536,1054.37883281626,582.212099195248,911.784642431215,370.807518193712,657.405809614959,388.595418998464,545.621167183745,617.787900804752,0,0,0,0,0,4,vertical,horizontal,horizontal,vertical,vertical,vertical
1c,3,100137,3,40,168,20,F,NA,variable,homogeneous,6,absent,0.96892786026001,1,vertical,vertical,1,0.964701943397522,green,6,NaN,601.827779828472,760.476699717708,NaN,NaN,839.890788585259,851.86052685176,1038.06300875679,691.383827134052,998.172220171528,439.523300282291,760.109211414741,348.13947314824,561.936991243214,508.616172865948,601.827779828472,760.476699717708,0,0,0,0,0,4,vertical,vertical,vertical,vertical,horizontal,vertical
1c,3,100137,3,41,169,20,F,NA,variable,homogeneous,4,absent,1.32332706451416,1,vertical,vertical,1,0.941172785758972,red,1,NaN,729.712474266665,845.121732464271,NaN,NaN,729.712474266665,845.121732464271,1045.12173246427,670.287525733335,870.287525733335,354.878267535729,554.878267535729,529.712474266665,0,0,0,0,4,0,0,0,NaN,NaN,vertical,vertical,horizontal,vertical,none,none
1c,3,100137,3,42,170,20,F,NA,variable,homogeneous,3,absent,0.597443103790283,1,vertical,vertical,1,0.964701943397522,green,2,NaN,1050.31493177915,648.656293821019,NaN,NaN,632.704947607421,792.450942956807,1050.31493177915,648.656293821019,716.980120613425,358.892763222174,0,0,0,0,0,0,0,4,0,NaN,NaN,NaN,vertical,vertical,horizontal,none,none,none
1c,3,100137,3,43,171,20,F,NA,variable,homogeneous,4,present,NaN,0,vertical,none,0,0.694116630554199,red,2,3,1027.20666366803,715.767577433584,915.767577433584,372.793336331966,684.232422566416,827.206663668034,1027.20666366803,715.767577433584,915.767577433584,372.793336331966,572.793336331966,484.232422566416,0,0,0,0,0,4,0,0,NaN,NaN,horizontal,vertical,horizontal,vertical,none,none
1c,3,100137,3,44,172,20,F,NA,variable,homogeneous,4,absent,0.796348094940186,1,horizontal,horizontal,1,0.847056155204773,green,1,NaN,931.334709102064,818.577661679039,NaN,NaN,931.334709102064,818.577661679039,1018.57766167904,468.665290897936,668.665290897936,381.422338320961,581.422338320961,731.334709102064,0,0,0,0,4,0,0,0,NaN,NaN,horizontal,vertical,vertical,vertical,none,none
1c,3,100137,3,45,173,20,F,NA,variable,homogeneous,5,present,1.19355821609497,0,horizontal,vertical,1,1.05881857395172,green,2,4,1054.37883281626,617.787900804752,604.658667004661,436.089159529932,861.690083377915,847.425410200379,1054.37883281626,617.787900804752,895.524681321058,363.568117085469,604.658667004661,436.089159529932,583.747735480111,735.129412379467,0,0,0,4,0,0,0,NaN,horizontal,horizontal,vertical,vertical,vertical,none
1c,3,100137,3,46,174,20,F,NA,variable,homogeneous,5,absent,1.1281681060791,1,horizontal,horizontal,1,0.929408206939697,green,4,NaN,782.212099195248,345.621167183745,NaN,NaN,664.870587620533,816.252264519889,963.910840470068,795.341332995339,1036.43188291453,504.475318678942,782.212099195248,345.621167183745,552.574589799621,538.309916622085,0,0,0,0,0,4,0,NaN,vertical,vertical,vertical,horizontal,horizontal,none
1c,3,100137,3,47,175,20,F,NA,variable,homogeneous,6,absent,0.868084192276001,1,vertical,vertical,1,0.847056155204773,red,6,NaN,588.595418998464,742.594190385041,NaN,NaN,817.787900804752,854.378832816255,1029.19248180629,711.784642431215,1011.40458100154,457.40580961496,782.212099195248,345.621167183745,570.807518193712,488.215357568785,588.595418998464,742.594190385041,0,0,0,0,0,4,horizontal,horizontal,vertical,vertical,vertical,vertical
1c,3,100137,3,48,176,20,F,NA,variable,homogeneous,5,absent,0.966452836990356,1,horizontal,horizontal,1,0.6470583152771,red,3,NaN,1016.25226451989,464.870587620533,NaN,NaN,704.475318678942,836.431882914531,995.341332995339,763.910840470068,1016.25226451989,464.870587620533,738.309916622085,352.574589799621,545.621167183745,582.212099195248,0,0,0,0,4,0,0,NaN,vertical,vertical,horizontal,vertical,horizontal,none
1c,3,100137,3,49,177,20,F,NA,variable,homogeneous,5,present,0.841784954071045,1,horizontal,horizontal,1,0.988231101036072,red,1,2,661.117046071168,813.860994826083,960.476699717708,798.172220171528,661.117046071168,813.860994826083,960.476699717708,798.172220171528,1038.06300875679,508.616172865948,786.654331158049,345.349468637584,553.688914296288,534.001143498857,0,0,4,0,0,0,0,NaN,horizontal,horizontal,horizontal,vertical,vertical,none
1c,3,100137,3,50,178,20,F,NA,variable,homogeneous,4,present,0.771739959716797,1,horizontal,horizontal,1,0.6470583152771,green,4,2,591.116228706307,453.738008730483,1008.88377129369,746.261991269517,653.738008730483,808.883771293693,1008.88377129369,746.261991269517,946.261991269517,391.116228706307,591.116228706307,453.738008730483,0,0,0,0,0,0,0,4,NaN,NaN,vertical,vertical,horizontal,horizontal,none,none
1c,3,100137,3,51,179,20,F,NA,variable,homogeneous,4,present,0.782941818237305,1,vertical,vertical,1,0.988231101036072,red,2,3,1025.15163617903,480.284751489598,680.284751489598,374.848363820974,919.715248510402,825.151636179026,1025.15163617903,480.284751489598,680.284751489598,374.848363820974,574.848363820974,719.715248510402,0,0,0,0,0,4,0,0,NaN,NaN,vertical,vertical,vertical,horizontal,none,none
1c,3,100137,3,52,180,20,F,NA,variable,homogeneous,4,present,0.709280967712402,1,vertical,vertical,1,0.917643628120422,green,3,2,742.637481142314,351.535633479765,1048.46436652023,542.637481142314,857.362518857686,848.464366520235,1048.46436652023,542.637481142314,742.637481142314,351.535633479765,551.535633479765,657.362518857686,0,0,0,0,0,0,4,0,NaN,NaN,vertical,horizontal,vertical,vertical,none,none
1c,3,100137,3,53,181,20,F,NA,variable,homogeneous,5,absent,0.626461029052734,1,vertical,vertical,1,0.741174945831299,green,2,NaN,1053.09926866854,568.923317431687,NaN,NaN,907.767656743878,831.108485694346,1053.09926866854,568.923317431687,848.656293821019,349.685068220846,576.971974679454,476.373546837184,613.504806087112,773.909581815937,0,0,0,4,0,0,0,NaN,vertical,vertical,horizontal,horizontal,horizontal,none
1c,3,100137,3,54,182,20,F,NA,variable,homogeneous,4,present,0.885277032852173,1,horizontal,horizontal,1,0.705881209373474,green,4,3,610.498069503264,429.371695378491,970.628304621509,410.498069503264,629.371695378491,789.501930496736,989.501930496736,770.628304621509,970.628304621509,410.498069503264,610.498069503264,429.371695378491,0,0,0,0,0,0,0,4,NaN,NaN,vertical,horizontal,horizontal,horizontal,none,none
1c,3,100137,3,55,183,20,F,NA,variable,homogeneous,6,absent,1.31263303756714,1,horizontal,horizontal,1,0.870585312843323,red,6,NaN,550.57236181288,653.017481158529,NaN,NaN,721.200666434388,842.519411655264,970.628304621509,789.501930496736,1049.42763818712,546.982518841471,878.799333565612,357.480588344736,629.371695378491,410.498069503264,550.57236181288,653.017481158529,0,0,0,0,0,4,vertical,vertical,vertical,horizontal,vertical,horizontal
1c,3,100137,3,56,184,20,F,NA,variable,homogeneous,3,absent,0.992913961410522,1,horizontal,horizontal,1,1.08234773159027,red,2,NaN,804.450363641507,345.03883773512,NaN,NaN,1018.57766167904,731.334709102064,804.450363641507,345.03883773512,576.971974679454,723.626453162816,0,0,0,0,0,0,0,4,0,NaN,NaN,NaN,vertical,horizontal,vertical,none,none,none
1c,3,100137,3,57,185,20,F,NA,variable,homogeneous,4,absent,0.856481075286865,1,horizontal,horizontal,1,0.976466522216797,red,4,NaN,570.807518193712,488.215357568785,NaN,NaN,688.215357568785,829.192481806288,1029.19248180629,711.784642431215,911.784642431215,370.807518193712,570.807518193712,488.215357568785,0,0,0,0,0,0,0,4,NaN,NaN,vertical,vertical,vertical,horizontal,none,none
1c,3,100137,3,58,186,20,F,NA,variable,homogeneous,5,absent,0.850263833999634,1,vertical,vertical,1,0.635293736457825,red,4,NaN,672.5,379.163522034968,NaN,NaN,773.345241866748,853.60308331891,1032.95409169886,703.717843984329,970.628304621509,410.498069503264,672.5,379.163522034968,550.57236181288,653.017481158529,0,0,0,0,0,4,0,NaN,vertical,horizontal,horizontal,vertical,horizontal,none
1c,3,100137,3,59,187,20,F,NA,variable,homogeneous,5,absent,1.07982301712036,1,horizontal,horizontal,1,0.62352915763855,red,4,NaN,601.827779828472,439.523300282291,NaN,NaN,865.998856501143,846.311085703712,1054.65053136242,613.345668841951,891.383827134052,361.936991243214,601.827779828472,439.523300282291,586.139005173917,738.882953928832,0,0,0,0,0,4,0,NaN,vertical,horizontal,horizontal,horizontal,horizontal,none
1c,3,100137,3,60,188,20,F,NA,variable,homogeneous,6,absent,0.618176937103271,1,vertical,vertical,1,0.835291576385498,red,5,NaN,551.535633479765,542.637481142314,NaN,NaN,874.554784704298,843.857712770574,1048.46436652023,657.362518857686,973.909581815937,413.504806087112,725.445215295702,356.142287229426,551.535633479765,542.637481142314,626.090418184063,786.495193912888,0,0,0,0,4,0,vertical,horizontal,horizontal,horizontal,vertical,horizontal
1c,3,100137,3,61,189,20,F,NA,variable,homogeneous,4,absent,0.722756147384644,1,vertical,vertical,1,0.999995679855347,green,4,NaN,554.878267535729,670.287525733335,NaN,NaN,870.287525733335,845.121732464271,1045.12173246427,529.712474266665,729.712474266665,354.878267535729,554.878267535729,670.287525733335,0,0,0,0,0,0,0,4,NaN,NaN,horizontal,horizontal,vertical,vertical,none,none
1c,3,100137,3,62,190,20,F,NA,variable,homogeneous,5,absent,0.699056148529053,1,horizontal,horizontal,1,0.670587472915649,green,4,NaN,561.936991243214,508.616172865948,NaN,NaN,938.882953928832,813.860994826083,1046.31108570371,534.001143498857,813.345668841951,345.349468637584,561.936991243214,508.616172865948,639.523300282292,798.172220171528,0,0,0,0,0,4,0,NaN,horizontal,vertical,vertical,horizontal,vertical,none
1c,3,100137,3,63,191,20,F,NA,variable,homogeneous,3,present,1.04384994506836,1,vertical,vertical,1,0.741174945831299,red,3,2,672.5,379.163522034968,1055,600,672.5,820.836477965032,1055,600,672.5,379.163522034968,0,0,0,0,0,0,0,0,4,NaN,NaN,NaN,vertical,horizontal,vertical,none,none,none
1c,3,100137,3,64,192,20,F,NA,variable,homogeneous,4,absent,0.89824390411377,1,horizontal,horizontal,1,0.858820734024048,red,2,NaN,1051.12597701811,555.719714694933,NaN,NaN,844.280285305067,851.125977018113,1051.12597701811,555.719714694933,755.719714694933,348.874022981887,548.874022981887,644.280285305067,0,0,0,0,0,4,0,0,NaN,NaN,horizontal,horizontal,horizontal,horizontal,none,none
1c,3,100137,4,1,193,20,F,NA,variable,homogeneous,6,present,0.791646957397461,1,horizontal,horizontal,1,1.03528941631317,green,2,3,1032.95409169886,703.717843984329,1006.29933356561,450.114760665419,826.654758133252,853.60308331891,1032.95409169886,703.717843984329,1006.29933356561,450.114760665419,773.345241866748,346.39691668109,567.045908301137,496.282156015671,593.700666434388,749.885239334581,0,4,0,0,0,0,horizontal,horizontal,horizontal,horizontal,horizontal,vertical
1c,3,100137,4,2,194,20,F,NA,variable,homogeneous,5,present,0.684705018997192,1,horizontal,horizontal,1,0.858820734024048,green,5,3,547.481642470899,635.489140744817,983.431649086356,422.862115532956,755.719714694933,851.125977018113,1025.15163617903,719.715248510402,983.431649086356,422.862115532956,688.215357568785,370.807518193712,547.481642470899,635.489140744817,0,0,0,0,0,0,4,NaN,horizontal,vertical,vertical,vertical,horizontal,none
1c,3,100137,4,3,195,20,F,NA,variable,homogeneous,4,present,1.34684491157532,1,vertical,vertical,1,0.611764578819275,red,2,4,1055,600,545,600,800,855,1055,600,800,345,545,600,0,0,0,0,0,4,0,0,NaN,NaN,horizontal,vertical,horizontal,vertical,none,none
1c,3,100137,4,4,196,20,F,NA,variable,homogeneous,3,present,0.838728904724121,1,vertical,vertical,1,0.835291576385498,red,1,2,777.775285599347,854.029648013395,1031.10848569435,492.232343256122,777.775285599347,854.029648013395,1031.10848569435,492.232343256122,591.116228706307,453.738008730483,0,0,0,0,0,0,4,0,0,NaN,NaN,NaN,vertical,vertical,vertical,none,none,none
1c,3,100137,4,5,197,20,F,NA,variable,homogeneous,3,absent,0.911296129226685,1,horizontal,horizontal,1,0.776468682289124,red,1,NaN,680.284751489598,825.151636179026,NaN,NaN,680.284751489598,825.151636179026,1054.84466088987,591.100628340862,664.870587620533,383.747735480111,0,0,0,0,0,0,4,0,0,NaN,NaN,NaN,horizontal,vertical,horizontal,none,none,none
1c,3,100137,4,6,198,20,F,NA,variable,homogeneous,4,absent,1.04900884628296,1,vertical,vertical,1,0.976466522216797,green,3,NaN,657.405809614959,388.595418998464,NaN,NaN,942.594190385041,811.404581001536,1011.40458100154,457.40580961496,657.405809614959,388.595418998464,588.595418998464,742.594190385041,0,0,0,0,0,0,4,0,NaN,NaN,horizontal,vertical,vertical,horizontal,none,none
1c,3,100137,4,7,199,20,F,NA,variable,homogeneous,5,absent,1.02514910697937,1,vertical,vertical,1,0.741174945831299,red,4,NaN,576.971974679454,476.373546837184,NaN,NaN,907.767656743878,831.108485694346,1053.09926866854,568.923317431687,848.656293821019,349.685068220846,576.971974679454,476.373546837184,613.504806087112,773.909581815937,0,0,0,0,0,4,0,NaN,horizontal,horizontal,vertical,vertical,horizontal,none
1c,3,100137,4,8,200,20,F,NA,variable,homogeneous,6,present,1.06128215789795,1,vertical,vertical,1,0.976466522216797,green,4,6,760.109211414741,348.13947314824,601.827779828472,760.476699717708,839.890788585259,851.86052685176,1038.06300875679,691.383827134052,998.172220171528,439.523300282291,760.109211414741,348.13947314824,561.936991243214,508.616172865948,601.827779828472,760.476699717708,0,0,0,4,0,0,horizontal,vertical,horizontal,vertical,vertical,vertical
1c,3,100137,4,9,201,20,F,NA,variable,homogeneous,6,present,0.699218988418579,1,horizontal,horizontal,1,0.811762418746948,red,5,2,604.658667004661,436.089159529932,995.341332995339,763.910840470068,755.719714694933,851.125977018113,995.341332995339,763.910840470068,1039.62161830041,512.784863451954,844.280285305067,348.874022981887,604.658667004661,436.089159529932,560.378381699593,687.215136548046,0,0,0,0,4,0,vertical,horizontal,vertical,horizontal,horizontal,horizontal
1c,3,100137,4,10,202,20,F,NA,variable,homogeneous,3,present,1.06488490104675,1,vertical,vertical,1,0.976466522216797,green,3,1,549.685068220846,551.343706178981,883.019879386575,841.107236777826,883.019879386575,841.107236777826,967.295052392579,407.549057043193,549.685068220846,551.343706178981,0,0,0,0,0,0,0,0,4,NaN,NaN,NaN,vertical,horizontal,vertical,none,none,none
1c,3,100137,4,11,203,20,F,NA,variable,homogeneous,6,present,1.02915906906128,1,horizontal,horizontal,1,0.741174945831299,red,2,4,1018.57766167904,731.334709102064,804.450363641507,345.03883773512,795.549636358493,854.96116226488,1018.57766167904,731.334709102064,1023.02802532055,476.373546837184,804.450363641507,345.03883773512,581.422338320961,468.665290897936,576.971974679454,723.626453162816,0,4,0,0,0,0,vertical,horizontal,horizontal,vertical,horizontal,horizontal
1c,3,100137,4,12,204,20,F,NA,variable,homogeneous,6,absent,1.10681509971619,1,vertical,vertical,1,0.6470583152771,green,6,NaN,629.371695378491,789.501930496736,NaN,NaN,878.799333565612,842.519411655264,1049.42763818712,653.017481158529,970.628304621509,410.498069503264,721.200666434388,357.480588344736,550.57236181288,546.982518841471,629.371695378491,789.501930496736,0,0,0,0,0,4,vertical,vertical,vertical,horizontal,horizontal,vertical
1c,3,100137,4,13,205,20,F,NA,variable,homogeneous,6,absent,1.02110695838928,1,horizontal,horizontal,1,0.999995679855347,green,2,NaN,970.628304621509,789.501930496736,NaN,NaN,721.200666434388,842.519411655264,970.628304621509,789.501930496736,1049.42763818712,546.982518841471,878.799333565612,357.480588344736,629.371695378491,410.498069503264,550.57236181288,653.017481158529,0,4,0,0,0,0,horizontal,horizontal,horizontal,horizontal,vertical,horizontal
1c,3,100137,4,14,206,20,F,NA,variable,homogeneous,3,absent,0.673541069030762,1,vertical,vertical,1,0.988231101036072,green,2,NaN,986.495193912888,426.090418184063,NaN,NaN,857.362518857686,848.464366520235,986.495193912888,426.090418184063,556.142287229426,525.445215295702,0,0,0,0,0,0,0,4,0,NaN,NaN,NaN,vertical,vertical,horizontal,none,none,none
1c,3,100137,4,15,207,20,F,NA,variable,homogeneous,6,present,0.618495941162109,1,vertical,vertical,1,0.764704103469849,green,5,2,572.793336331966,484.232422566416,1027.20666366803,715.767577433584,813.345668841951,854.650531362416,1027.20666366803,715.767577433584,1013.86099482608,461.117046071168,786.654331158049,345.349468637584,572.793336331966,484.232422566416,586.139005173917,738.882953928832,0,0,0,0,4,0,vertical,vertical,horizontal,vertical,vertical,vertical
1c,3,100137,4,16,208,20,F,NA,variable,homogeneous,6,absent,0.753021001815796,1,vertical,vertical,1,0.905879049301147,red,6,NaN,553.688914296288,665.998856501143,NaN,NaN,734.001143498857,846.311085703712,980.31222920257,780.31222920257,1046.31108570371,534.001143498857,865.998856501143,353.688914296288,619.68777079743,419.68777079743,553.688914296288,665.998856501143,0,0,0,0,0,4,vertical,vertical,horizontal,vertical,vertical,vertical
1c,3,100137,4,17,209,20,F,NA,variable,homogeneous,3,present,0.75786304473877,1,horizontal,horizontal,1,0.670587472915649,green,2,1,1053.09926866854,568.923317431687,700.363562235235,834.728737630372,700.363562235235,834.728737630372,1053.09926866854,568.923317431687,646.537169096228,396.34794493794,0,0,0,0,0,0,0,4,0,NaN,NaN,NaN,horizontal,horizontal,horizontal,none,none,none
1c,3,100137,4,18,210,20,F,NA,variable,homogeneous,3,absent,0.741445064544678,1,horizontal,horizontal,1,0.611764578819275,green,1,NaN,601.827779828472,760.476699717708,NaN,NaN,601.827779828472,760.476699717708,1038.06300875679,691.383827134052,760.109211414741,348.13947314824,0,0,0,0,0,0,4,0,0,NaN,NaN,NaN,horizontal,vertical,vertical,none,none,none
1c,3,100137,4,19,211,20,F,NA,variable,homogeneous,3,absent,0.631857872009277,1,vertical,vertical,1,0.764704103469849,green,3,NaN,545,600,NaN,NaN,927.5,820.836477965032,927.5,379.163522034968,545,600,0,0,0,0,0,0,0,0,4,NaN,NaN,NaN,vertical,horizontal,vertical,none,none,none
1c,3,100137,4,20,212,20,F,NA,variable,homogeneous,6,present,0.801240205764771,1,horizontal,horizontal,1,1.03528941631317,green,1,6,817.787900804752,854.378832816255,588.595418998464,742.594190385041,817.787900804752,854.378832816255,1029.19248180629,711.784642431215,1011.40458100154,457.40580961496,782.212099195248,345.621167183745,570.807518193712,488.215357568785,588.595418998464,742.594190385041,4,0,0,0,0,0,horizontal,vertical,horizontal,vertical,vertical,vertical
1c,3,100137,4,21,213,20,F,NA,variable,homogeneous,4,present,1.06148600578308,1,vertical,vertical,1,0.799997839927673,red,4,2,576.971974679454,476.373546837184,1023.02802532055,723.626453162816,676.373546837184,823.028025320546,1023.02802532055,723.626453162816,923.626453162816,376.971974679454,576.971974679454,476.373546837184,0,0,0,0,0,0,0,4,NaN,NaN,horizontal,horizontal,vertical,vertical,none,none
1c,3,100137,4,22,214,20,F,NA,variable,homogeneous,4,present,0.773750066757202,1,horizontal,horizontal,1,0.929408206939697,red,2,3,1034.72873763037,500.363562235235,700.363562235235,365.271262369628,899.636437764765,834.728737630372,1034.72873763037,500.363562235235,700.363562235235,365.271262369628,565.271262369628,699.636437764765,0,0,0,0,0,4,0,0,NaN,NaN,vertical,horizontal,vertical,vertical,none,none
1c,3,100137,4,23,215,20,F,NA,variable,homogeneous,6,absent,1.01637291908264,1,vertical,vertical,1,0.964701943397522,green,6,NaN,545.621167183745,617.787900804752,NaN,NaN,688.215357568785,829.192481806288,942.594190385041,811.404581001536,1054.37883281626,582.212099195248,911.784642431215,370.807518193712,657.405809614959,388.595418998464,545.621167183745,617.787900804752,0,0,0,0,0,4,horizontal,vertical,vertical,horizontal,vertical,vertical
1c,3,100137,4,24,216,20,F,NA,variable,homogeneous,5,present,1.05728912353516,1,vertical,vertical,1,0.823526997566223,green,5,1,556.142287229426,525.445215295702,653.738008730483,808.883771293693,653.738008730483,808.883771293693,953.462830903772,803.65205506206,1041.10723677783,516.980120613425,795.549636358493,345.03883773512,556.142287229426,525.445215295702,0,0,0,0,0,0,4,NaN,vertical,horizontal,horizontal,vertical,vertical,none
1c,3,100137,4,25,217,20,F,NA,variable,homogeneous,5,present,1.11953902244568,1,vertical,vertical,1,0.847056155204773,red,4,3,657.405809614959,388.595418998464,956.993676208043,399.057257830286,791.100628340862,854.844660889869,1039.62161830041,687.215136548046,956.993676208043,399.057257830286,657.405809614959,388.595418998464,554.878267535729,670.287525733335,0,0,0,0,0,4,0,NaN,horizontal,vertical,horizontal,vertical,vertical,none
1c,3,100137,4,26,218,20,F,NA,variable,homogeneous,3,absent,0.626171112060547,1,vertical,vertical,1,0.788233261108398,red,3,NaN,764.510859255183,347.4816424709,NaN,NaN,599.057257830286,756.993676208043,1036.43188291453,695.524681321058,764.510859255183,347.4816424709,0,0,0,0,0,0,0,0,4,NaN,NaN,NaN,horizontal,vertical,vertical,none,none,none
1c,3,100137,4,27,219,20,F,NA,variable,homogeneous,3,present,0.785138845443726,1,horizontal,horizontal,1,0.917643628120422,red,1,3,729.712474266665,845.121732464271,622.862115532956,416.568350913644,729.712474266665,845.121732464271,1047.42541020038,538.309916622085,622.862115532956,416.568350913644,0,0,0,0,0,0,4,0,0,NaN,NaN,NaN,horizontal,horizontal,horizontal,none,none,none
1c,3,100137,4,28,220,20,F,NA,variable,homogeneous,5,present,0.87928295135498,1,horizontal,horizontal,1,0.717645788192749,green,4,5,661.117046071168,386.139005173917,553.688914296288,665.998856501143,786.654331158049,854.650531362416,1038.06300875679,691.383827134052,960.476699717708,401.827779828472,661.117046071168,386.139005173917,553.688914296288,665.998856501143,0,0,0,0,0,4,0,NaN,horizontal,horizontal,vertical,horizontal,horizontal,none
1c,3,100137,4,29,221,20,F,NA,variable,homogeneous,6,absent,1.10466814041138,1,vertical,vertical,1,0.988231101036072,red,3,NaN,1011.40458100154,457.40580961496,NaN,NaN,817.787900804752,854.378832816255,1029.19248180629,711.784642431215,1011.40458100154,457.40580961496,782.212099195248,345.621167183745,570.807518193712,488.215357568785,588.595418998464,742.594190385041,0,0,4,0,0,0,vertical,horizontal,vertical,vertical,vertical,vertical
1c,3,100137,4,30,222,20,F,NA,variable,homogeneous,4,absent,0.96218204498291,1,vertical,vertical,1,0.752939524650574,red,1,NaN,692.232343256122,831.108485694346,NaN,NaN,692.232343256122,831.108485694346,1031.10848569435,707.767656743878,907.767656743878,368.891514305654,568.891514305654,492.232343256122,0,0,0,0,4,0,0,0,NaN,NaN,vertical,horizontal,horizontal,horizontal,none,none
1c,3,100137,4,31,223,20,F,NA,variable,homogeneous,6,absent,0.886430978775024,1,horizontal,horizontal,1,0.6470583152771,green,4,NaN,883.019879386575,358.892763222174,NaN,NaN,716.980120613425,841.107236777826,967.295052392579,792.450942956807,1050.31493177915,551.343706178981,883.019879386575,358.892763222174,632.704947607421,407.549057043193,549.685068220846,648.656293821019,0,0,0,4,0,0,horizontal,vertical,horizontal,horizontal,vertical,vertical
1c,3,100137,4,32,224,20,F,NA,variable,homogeneous,5,absent,0.831334114074707,1,horizontal,horizontal,1,0.952937364578247,red,1,NaN,760.109211414741,851.86052685176,NaN,NaN,760.109211414741,851.86052685176,1027.20666366803,715.767577433584,980.31222920257,419.68777079743,684.232422566416,372.793336331966,548.13947314824,639.890788585259,0,0,4,0,0,0,0,NaN,horizontal,vertical,vertical,horizontal,vertical,none
1c,3,100137,4,33,225,20,F,NA,variable,homogeneous,3,absent,0.873727083206177,1,horizontal,horizontal,1,0.882349891662598,red,1,NaN,927.5,820.836477965032,NaN,NaN,927.5,820.836477965032,927.5,379.163522034968,545,600,0,0,0,0,0,0,4,0,0,NaN,NaN,NaN,horizontal,horizontal,vertical,none,none,none
1c,3,100137,4,34,226,20,F,NA,variable,homogeneous,5,present,0.668262004852295,1,horizontal,horizontal,1,0.635293736457825,red,1,2,927.5,820.836477965032,1049.42763818712,546.982518841471,927.5,820.836477965032,1049.42763818712,546.982518841471,826.654758133252,346.39691668109,567.045908301137,496.282156015671,629.371695378491,789.501930496736,0,0,4,0,0,0,0,NaN,horizontal,vertical,vertical,horizontal,horizontal,none
1c,3,100137,4,35,227,20,F,NA,variable,homogeneous,3,present,0.869366884231567,1,vertical,vertical,1,0.776468682289124,green,1,2,581.422338320961,731.334709102064,1023.02802532055,723.626453162816,581.422338320961,731.334709102064,1023.02802532055,723.626453162816,795.549636358493,345.03883773512,0,0,0,0,0,0,4,0,0,NaN,NaN,NaN,vertical,vertical,vertical,none,none,none
1c,3,100137,4,36,228,20,F,NA,variable,homogeneous,3,absent,0.755242109298706,1,vertical,vertical,1,0.62352915763855,red,1,NaN,949.885239334581,806.299333565612,NaN,NaN,949.885239334581,806.299333565612,903.717843984329,367.045908301137,546.39691668109,626.654758133252,0,0,0,0,0,0,4,0,0,NaN,NaN,NaN,vertical,vertical,horizontal,none,none,none
1c,3,100137,4,37,229,20,F,NA,variable,homogeneous,4,absent,0.61937403678894,1,vertical,vertical,1,1.03528941631317,green,1,NaN,800,855,NaN,NaN,800,855,1055,600,800,345,545,600,0,0,0,0,4,0,0,0,NaN,NaN,vertical,vertical,horizontal,horizontal,none,none
1c,3,100137,4,38,230,20,F,NA,variable,homogeneous,5,present,0.924864053726196,1,vertical,vertical,1,0.847056155204773,green,4,3,708.616172865948,361.936991243214,998.172220171528,439.523300282291,734.001143498857,846.311085703712,1013.86099482608,738.882953928832,998.172220171528,439.523300282291,708.616172865948,361.936991243214,545.349468637584,613.345668841951,0,0,0,0,0,4,0,NaN,vertical,horizontal,vertical,vertical,vertical,none
1c,3,100137,4,39,231,20,F,NA,variable,homogeneous,3,present,0.707000017166138,1,horizontal,horizontal,1,0.776468682289124,green,2,1,1048.46436652023,542.637481142314,725.445215295702,843.857712770574,725.445215295702,843.857712770574,1048.46436652023,542.637481142314,626.090418184063,413.504806087112,0,0,0,0,0,0,0,4,0,NaN,NaN,NaN,horizontal,horizontal,vertical,none,none,none
1c,3,100137,4,40,232,20,F,NA,variable,homogeneous,6,absent,1.3814389705658,1,horizontal,horizontal,1,0.799997839927673,red,6,NaN,653.738008730483,808.883771293693,NaN,NaN,907.767656743878,831.108485694346,1054.0296480134,622.224714400653,946.261991269517,391.116228706307,692.232343256122,368.891514305654,545.970351986605,577.775285599347,653.738008730483,808.883771293693,0,0,0,0,0,4,vertical,horizontal,vertical,horizontal,vertical,horizontal
1c,3,100137,4,41,233,20,F,NA,variable,homogeneous,4,present,0.685650110244751,1,horizontal,horizontal,1,0.635293736457825,green,2,4,1000.94274216971,756.993676208043,599.057257830286,443.006323791957,643.006323791957,800.942742169714,1000.94274216971,756.993676208043,956.993676208043,399.057257830286,599.057257830286,443.006323791957,0,0,0,0,0,4,0,0,NaN,NaN,horizontal,horizontal,horizontal,horizontal,none,none
1c,3,100137,4,42,234,20,F,NA,variable,homogeneous,3,present,1.27332401275635,0,horizontal,vertical,1,0.670587472915649,red,1,3,738.309916622085,847.425410200379,616.568350913644,422.862115532956,738.309916622085,847.425410200379,1045.12173246427,529.712474266665,616.568350913644,422.862115532956,0,0,0,0,0,0,4,0,0,NaN,NaN,NaN,horizontal,horizontal,vertical,none,none,none
1c,3,100137,4,43,235,20,F,NA,variable,homogeneous,5,present,1.34155893325806,1,vertical,vertical,1,0.729410367012024,red,2,4,1042.51941165526,521.200666434388,557.480588344736,521.200666434388,949.885239334581,806.299333565612,1042.51941165526,521.200666434388,800,345,557.480588344736,521.200666434388,650.114760665419,806.299333565612,0,0,0,4,0,0,0,NaN,vertical,vertical,horizontal,horizontal,vertical,none
1c,3,100137,4,44,236,20,F,NA,variable,homogeneous,4,absent,0.648628950119019,1,horizontal,horizontal,1,0.988231101036072,red,4,NaN,552.574589799621,661.690083377915,NaN,NaN,861.690083377915,847.425410200379,1047.42541020038,538.309916622085,738.309916622085,352.574589799621,552.574589799621,661.690083377915,0,0,0,0,0,0,0,4,NaN,NaN,vertical,vertical,horizontal,horizontal,none,none
1c,3,100137,4,45,237,20,F,NA,variable,homogeneous,4,present,1.0632221698761,1,vertical,vertical,1,1.070583152771,green,2,3,992.450942956807,767.295052392579,967.295052392579,407.549057043193,632.704947607421,792.450942956807,992.450942956807,767.295052392579,967.295052392579,407.549057043193,607.549057043193,432.704947607421,0,0,0,0,0,4,0,0,NaN,NaN,vertical,vertical,horizontal,horizontal,none,none
1c,3,100137,4,46,238,20,F,NA,variable,homogeneous,3,absent,0.743582963943481,1,horizontal,horizontal,1,0.752939524650574,green,3,NaN,553.688914296288,665.998856501143,NaN,NaN,980.31222920257,780.31222920257,865.998856501143,353.688914296288,553.688914296288,665.998856501143,0,0,0,0,0,0,0,0,4,NaN,NaN,NaN,horizontal,vertical,horizontal,none,none,none
1c,3,100137,4,47,239,20,F,NA,variable,homogeneous,5,absent,1.33082294464111,1,vertical,vertical,1,0.611764578819275,red,1,NaN,831.076682568313,853.099268668537,NaN,NaN,831.076682568313,853.099268668537,1050.31493177915,648.656293821019,923.626453162816,376.971974679454,626.090418184063,413.504806087112,568.891514305654,707.767656743878,0,0,4,0,0,0,0,NaN,vertical,horizontal,vertical,vertical,horizontal,none
1c,3,100137,4,48,240,20,F,NA,variable,homogeneous,6,present,1.1972188949585,1,vertical,vertical,1,0.776468682289124,red,3,2,1050.31493177915,551.343706178981,967.295052392579,792.450942956807,716.980120613425,841.107236777826,967.295052392579,792.450942956807,1050.31493177915,551.343706178981,883.019879386575,358.892763222174,632.704947607421,407.549057043193,549.685068220846,648.656293821019,0,0,4,0,0,0,vertical,horizontal,vertical,horizontal,vertical,horizontal
1c,3,100137,4,49,241,20,F,NA,variable,homogeneous,5,absent,0.785794973373413,1,horizontal,horizontal,1,0.811762418746948,green,2,NaN,963.910840470068,795.341332995339,NaN,NaN,664.870587620533,816.252264519889,963.910840470068,795.341332995339,1036.43188291453,504.475318678942,782.212099195248,345.621167183745,552.574589799621,538.309916622085,0,0,0,4,0,0,0,NaN,horizontal,horizontal,vertical,horizontal,horizontal,none
1c,3,100137,4,50,242,20,F,NA,variable,homogeneous,5,absent,0.913718938827515,1,horizontal,horizontal,1,0.811762418746948,green,5,NaN,545.970351986605,577.775285599347,NaN,NaN,700.363562235235,834.728737630372,992.450942956807,767.295052392579,1018.57766167904,468.665290897936,742.637481142314,351.535633479765,545.970351986605,577.775285599347,0,0,0,0,0,0,4,NaN,vertical,horizontal,horizontal,vertical,horizontal,none
1c,3,100137,4,51,243,20,F,NA,variable,homogeneous,4,present,1.03311681747437,1,horizontal,horizontal,1,0.658822894096375,red,3,2,891.383827134052,361.936991243214,1038.06300875679,691.383827134052,708.616172865948,838.063008756786,1038.06300875679,691.383827134052,891.383827134052,361.936991243214,561.936991243214,508.616172865948,0,0,0,0,0,0,4,0,NaN,NaN,vertical,horizontal,horizontal,horizontal,none,none
1c,3,100137,4,52,244,20,F,NA,variable,homogeneous,6,present,1.44829797744751,1,vertical,vertical,1,0.917643628120422,red,3,1,995.341332995339,436.089159529932,844.280285305067,851.125977018113,844.280285305067,851.125977018113,1039.62161830041,687.215136548046,995.341332995339,436.089159529932,755.719714694933,348.874022981887,560.378381699593,512.784863451954,604.658667004661,763.910840470068,0,0,4,0,0,0,vertical,vertical,vertical,vertical,horizontal,horizontal
1c,3,100137,4,53,245,20,F,NA,variable,homogeneous,4,absent,0.68028998374939,1,vertical,vertical,1,0.941172785758972,red,2,NaN,1025.15163617903,480.284751489598,NaN,NaN,919.715248510402,825.151636179026,1025.15163617903,480.284751489598,680.284751489598,374.848363820974,574.848363820974,719.715248510402,0,0,0,0,0,4,0,0,NaN,NaN,horizontal,vertical,vertical,vertical,none,none
