experiment,subject,uniqueID,block,trial,trial_cumulative,age,gender,color_cond_blocking,color_history,shape_type,set_size,distractor,rt,acc,target_orient,response_key,response_made,iti,target_color,target_item,distractor_item,target_X,target_Y,distractor_X,distractor_Y,item1_X,item1_Y,item2_X,item2_Y,item3_X,item3_Y,item4_X,item4_Y,item5_X,item5_Y,item6_X,item6_Y,item1_shape,item2_shape,item3_shape,item4_shape,item5_shape,item6_shape,item1_line,item2_line,item3_line,item4_line,item5_line,item6_line
1c,4,100125,1,1,1,21,F,NA,variable,homogeneous,3,present,1.52773189544678,1,horizontal,horizontal,1,0.62352879524231,red,3,1,558.892763222174,516.980120613425,848.656293821019,850.314931779154,848.656293821019,850.314931779154,992.450942956807,432.704947607421,558.892763222174,516.980120613425,0,0,0,0,0,0,0,0,4,NaN,NaN,NaN,horizontal,horizontal,horizontal,none,none,none
1c,4,100125,1,2,2,21,F,NA,variable,homogeneous,5,present,1.39742803573608,1,vertical,vertical,1,0.764701566696167,green,4,1,619.68777079743,419.68777079743,839.890788585259,851.86052685176,839.890788585259,851.86052685176,1051.86052685176,639.890788585259,915.767577433584,372.793336331966,619.68777079743,419.68777079743,572.793336331966,715.767577433584,0,0,0,0,0,4,0,NaN,horizontal,horizontal,vertical,vertical,horizontal,none
1c,4,100125,1,3,3,21,F,NA,variable,homogeneous,4,absent,0.764518022537231,1,vertical,vertical,1,0.752937169075012,red,3,NaN,822.224714400653,345.970351986605,NaN,NaN,777.775285599347,854.029648013395,1054.0296480134,622.224714400653,822.224714400653,345.970351986605,545.970351986605,577.775285599347,0,0,0,0,0,0,4,0,NaN,NaN,horizontal,vertical,vertical,vertical,none,none
1c,4,100125,1,4,4,21,F,NA,variable,homogeneous,6,present,0.653038024902344,1,vertical,vertical,1,1.04704710960388,red,6,1,545.349468637584,613.345668841951,684.232422566416,827.206663668034,684.232422566416,827.206663668034,938.882953928832,813.860994826083,1054.65053136242,586.654331158049,915.767577433584,372.793336331966,661.117046071168,386.139005173917,545.349468637584,613.345668841951,0,0,0,0,0,4,vertical,vertical,vertical,vertical,vertical,vertical
1c,4,100125,1,5,5,21,F,NA,variable,homogeneous,3,absent,0.72779107093811,1,vertical,vertical,1,0.882345542907715,red,2,NaN,1031.10848569435,492.232343256122,NaN,NaN,777.775285599347,854.029648013395,1031.10848569435,492.232343256122,591.116228706307,453.738008730483,0,0,0,0,0,0,0,4,0,NaN,NaN,NaN,horizontal,vertical,horizontal,none,none,none
1c,4,100125,1,6,6,21,F,NA,variable,homogeneous,4,present,0.892745971679688,1,horizontal,horizontal,1,0.705879578590393,green,2,4,995.341332995339,763.910840470068,604.658667004661,436.089159529932,636.089159529932,795.341332995339,995.341332995339,763.910840470068,963.910840470068,404.658667004661,604.658667004661,436.089159529932,0,0,0,0,0,4,0,0,NaN,NaN,vertical,horizontal,horizontal,horizontal,none,none
1c,4,100125,1,7,7,21,F,NA,variable,homogeneous,3,absent,0.795635938644409,1,horizontal,horizontal,1,0.647057590484619,green,2,NaN,1038.06300875679,508.616172865948,NaN,NaN,760.109211414741,851.86052685176,1038.06300875679,508.616172865948,601.827779828472,439.523300282291,0,0,0,0,0,0,0,4,0,NaN,NaN,NaN,vertical,horizontal,vertical,none,none,none
1c,4,100125,1,8,8,21,F,NA,variable,homogeneous,4,present,0.764002799987793,1,horizontal,horizontal,1,0.62352879524231,green,1,3,848.656293821019,850.314931779154,751.343706178981,349.685068220846,848.656293821019,850.314931779154,1050.31493177915,551.343706178981,751.343706178981,349.685068220846,549.685068220846,648.656293821019,0,0,0,0,4,0,0,0,NaN,NaN,horizontal,vertical,vertical,horizontal,none,none
1c,4,100125,1,9,9,21,F,NA,variable,homogeneous,4,absent,0.9515221118927,1,horizontal,horizontal,1,0.988225121498108,red,3,NaN,700.363562235235,365.271262369628,NaN,NaN,899.636437764765,834.728737630372,1034.72873763037,500.363562235235,700.363562235235,365.271262369628,565.271262369628,699.636437764765,0,0,0,0,0,0,4,0,NaN,NaN,vertical,horizontal,horizontal,vertical,none,none
1c,4,100125,1,10,10,21,F,NA,variable,homogeneous,4,absent,0.92713189125061,1,vertical,vertical,1,0.611764397621155,green,4,NaN,558.892763222174,683.019879386575,NaN,NaN,883.019879386575,841.107236777826,1041.10723677783,516.980120613425,716.980120613425,358.892763222174,558.892763222174,683.019879386575,0,0,0,0,0,0,0,4,NaN,NaN,horizontal,horizontal,horizontal,vertical,none,none
1c,4,100125,1,11,11,21,F,NA,variable,homogeneous,6,absent,0.949671030044556,1,horizontal,horizontal,1,0.999989519119263,red,6,NaN,579.163522034968,727.5,NaN,NaN,800,855,1020.83647796503,727.5,1020.83647796503,472.5,800,345,579.163522034968,472.5,579.163522034968,727.5,0,0,0,0,0,4,vertical,horizontal,vertical,horizontal,vertical,horizontal
1c,4,100125,1,12,12,21,F,NA,variable,homogeneous,4,present,0.882033109664917,1,vertical,vertical,1,0.858816747665405,green,4,1,588.595418998464,457.40580961496,657.405809614959,811.404581001536,657.405809614959,811.404581001536,1011.40458100154,742.594190385041,942.594190385041,388.595418998464,588.595418998464,457.40580961496,0,0,0,0,0,0,0,4,NaN,NaN,horizontal,vertical,horizontal,vertical,none,none
1c,4,100125,1,13,13,21,F,NA,variable,homogeneous,4,absent,1.47770309448242,1,horizontal,horizontal,1,0.89410994052887,green,2,NaN,989.501930496736,770.628304621509,NaN,NaN,629.371695378491,789.501930496736,989.501930496736,770.628304621509,970.628304621509,410.498069503264,610.498069503264,429.371695378491,0,0,0,0,0,4,0,0,NaN,NaN,horizontal,horizontal,horizontal,vertical,none,none
1c,4,100125,1,14,14,21,F,NA,variable,homogeneous,3,present,0.802390098571777,1,vertical,vertical,1,0.952931928634644,red,2,3,1043.85771277057,674.554784704298,742.637481142314,351.535633479765,613.504806087112,773.909581815937,1043.85771277057,674.554784704298,742.637481142314,351.535633479765,0,0,0,0,0,0,0,4,0,NaN,NaN,NaN,horizontal,vertical,horizontal,none,none,none
1c,4,100125,1,15,15,21,F,NA,variable,homogeneous,4,absent,1.2899751663208,1,vertical,vertical,1,0.764701566696167,red,2,NaN,1027.20666366803,715.767577433584,NaN,NaN,684.232422566416,827.206663668034,1027.20666366803,715.767577433584,915.767577433584,372.793336331966,572.793336331966,484.232422566416,0,0,0,0,0,4,0,0,NaN,NaN,vertical,vertical,horizontal,vertical,none,none
1c,4,100125,1,16,16,21,F,NA,variable,homogeneous,6,present,0.86792516708374,1,vertical,vertical,1,0.999989519119263,red,2,3,946.261991269517,808.883771293693,1054.0296480134,577.775285599347,692.232343256122,831.108485694346,946.261991269517,808.883771293693,1054.0296480134,577.775285599347,907.767656743878,368.891514305654,653.738008730483,391.116228706307,545.970351986605,622.224714400653,0,4,0,0,0,0,vertical,vertical,vertical,horizontal,horizontal,horizontal
1c,4,100125,1,17,17,21,F,NA,variable,homogeneous,5,present,0.762995004653931,1,horizontal,horizontal,1,0.882345542907715,green,5,1,545.970351986605,577.775285599347,700.363562235235,834.728737630372,700.363562235235,834.728737630372,992.450942956807,767.295052392579,1018.57766167904,468.665290897936,742.637481142314,351.535633479765,545.970351986605,577.775285599347,0,0,0,0,0,0,4,NaN,horizontal,vertical,horizontal,horizontal,horizontal,none
1c,4,100125,1,18,18,21,F,NA,variable,homogeneous,6,absent,1.21423196792603,1,vertical,vertical,1,0.799994759559631,red,3,NaN,980.31222920257,419.68777079743,NaN,NaN,865.998856501143,846.311085703712,1046.31108570371,665.998856501143,980.31222920257,419.68777079743,734.001143498857,353.688914296288,553.688914296288,534.001143498857,619.68777079743,780.31222920257,0,0,4,0,0,0,horizontal,horizontal,vertical,vertical,horizontal,horizontal
1c,4,100125,1,19,19,21,F,NA,variable,homogeneous,3,present,0.98530912399292,1,horizontal,horizontal,1,0.717643976211548,red,3,1,746.982518841471,350.57236181288,610.498069503264,770.628304621509,610.498069503264,770.628304621509,1042.51941165526,678.799333565612,746.982518841471,350.57236181288,0,0,0,0,0,0,0,0,4,NaN,NaN,NaN,vertical,horizontal,horizontal,none,none,none
1c,4,100125,1,20,20,21,F,NA,variable,homogeneous,4,present,1.42973613739014,1,horizontal,horizontal,1,0.647057590484619,red,2,1,1029.19248180629,488.215357568785,911.784642431215,829.192481806288,911.784642431215,829.192481806288,1029.19248180629,488.215357568785,688.215357568785,370.807518193712,570.807518193712,711.784642431215,0,0,0,0,0,4,0,0,NaN,NaN,vertical,horizontal,vertical,vertical,none,none
1c,4,100125,1,21,21,21,F,NA,variable,homogeneous,6,present,1.07648706436157,1,vertical,vertical,1,1.0941047000885,green,4,5,808.899371659138,345.155339110131,583.747735480111,464.870587620533,791.100628340862,854.844660889869,1016.25226451989,735.129412379467,1025.15163617903,480.284751489598,808.899371659138,345.155339110131,583.747735480111,464.870587620533,574.848363820974,719.715248510402,0,0,0,4,0,0,horizontal,vertical,horizontal,vertical,horizontal,vertical
1c,4,100125,1,22,22,21,F,NA,variable,homogeneous,6,absent,0.964600801467896,1,vertical,vertical,1,0.917638735771179,red,6,NaN,546.39691668109,626.654758133252,NaN,NaN,696.282156015671,832.954091698863,949.885239334581,806.299333565612,1053.60308331891,573.345241866748,903.717843984329,367.045908301137,650.114760665419,393.700666434388,546.39691668109,626.654758133252,0,0,0,0,0,4,horizontal,vertical,vertical,vertical,horizontal,vertical
1c,4,100125,1,23,23,21,F,NA,variable,homogeneous,4,absent,0.7811279296875,1,horizontal,horizontal,1,0.647057590484619,red,4,NaN,579.163522034968,727.5,NaN,NaN,927.5,820.836477965032,1020.83647796503,472.5,672.5,379.163522034968,579.163522034968,727.5,0,0,0,0,0,0,0,4,NaN,NaN,horizontal,horizontal,vertical,horizontal,none,none
1c,4,100125,1,24,24,21,F,NA,variable,homogeneous,3,absent,0.776083946228027,1,vertical,vertical,1,0.752937169075012,green,1,NaN,822.224714400653,854.029648013395,NaN,NaN,822.224714400653,854.029648013395,1008.88377129369,453.738008730483,568.891514305654,492.232343256122,0,0,0,0,0,0,4,0,0,NaN,NaN,NaN,vertical,horizontal,vertical,none,none,none
1c,4,100125,1,25,25,21,F,NA,variable,homogeneous,4,absent,0.688768863677979,1,vertical,vertical,1,0.658821988105774,green,3,NaN,938.882953928832,386.139005173917,NaN,NaN,661.117046071168,813.860994826083,1013.86099482608,738.882953928832,938.882953928832,386.139005173917,586.139005173917,461.117046071168,0,0,0,0,0,0,4,0,NaN,NaN,vertical,horizontal,vertical,vertical,none,none
1c,4,100125,1,26,26,21,F,NA,variable,homogeneous,6,absent,0.661257028579712,1,horizontal,horizontal,1,0.917638735771179,green,1,NaN,813.345668841951,854.650531362416,NaN,NaN,813.345668841951,854.650531362416,1027.20666366803,715.767577433584,1013.86099482608,461.117046071168,786.654331158049,345.349468637584,572.793336331966,484.232422566416,586.139005173917,738.882953928832,4,0,0,0,0,0,horizontal,horizontal,horizontal,vertical,horizontal,vertical
1c,4,100125,1,27,27,21,F,NA,variable,homogeneous,5,present,0.694133043289185,1,horizontal,horizontal,1,0.976460723876953,red,4,3,800,345,1042.51941165526,521.200666434388,650.114760665419,806.299333565612,949.885239334581,806.299333565612,1042.51941165526,521.200666434388,800,345,557.480588344736,521.200666434388,0,0,0,0,0,4,0,NaN,horizontal,vertical,vertical,horizontal,horizontal,none
1c,4,100125,1,28,28,21,F,NA,variable,homogeneous,6,present,0.706505060195923,1,horizontal,horizontal,1,0.705879578590393,red,6,2,552.574589799621,661.690083377915,977.137884467044,783.431649086356,729.712474266665,845.121732464271,977.137884467044,783.431649086356,1047.42541020038,538.309916622085,870.287525733335,354.878267535729,622.862115532956,416.568350913644,552.574589799621,661.690083377915,0,0,0,0,0,4,vertical,horizontal,horizontal,horizontal,vertical,horizontal
1c,4,100125,1,29,29,21,F,NA,variable,homogeneous,3,present,1.14071607589722,1,vertical,vertical,1,0.799994759559631,red,2,1,1032.95409169886,496.282156015671,773.345241866748,853.60308331891,773.345241866748,853.60308331891,1032.95409169886,496.282156015671,593.700666434388,450.114760665419,0,0,0,0,0,0,0,4,0,NaN,NaN,NaN,vertical,vertical,horizontal,none,none,none
1c,4,100125,1,30,30,21,F,NA,variable,homogeneous,3,present,0.869699954986572,1,vertical,vertical,1,0.89410994052887,green,2,1,995.341332995339,436.089159529932,844.280285305067,851.125977018113,844.280285305067,851.125977018113,995.341332995339,436.089159529932,560.378381699593,512.784863451954,0,0,0,0,0,0,0,4,0,NaN,NaN,NaN,vertical,vertical,horizontal,none,none,none
1c,4,100125,1,31,31,21,F,NA,variable,homogeneous,5,absent,0.628926038742065,1,horizontal,horizontal,1,0.670586385726929,red,5,NaN,607.549057043193,767.295052392579,NaN,NaN,899.636437764765,834.728737630372,1054.0296480134,577.775285599347,857.362518857686,351.535633479765,581.422338320961,468.665290897936,607.549057043193,767.295052392579,0,0,0,0,0,0,4,NaN,vertical,horizontal,vertical,horizontal,horizontal,none
1c,4,100125,1,32,32,21,F,NA,variable,homogeneous,3,absent,0.614888906478882,1,horizontal,horizontal,1,1.05881150722504,red,1,NaN,839.890788585259,851.86052685176,NaN,NaN,839.890788585259,851.86052685176,998.172220171528,439.523300282291,561.936991243214,508.616172865948,0,0,0,0,0,0,4,0,0,NaN,NaN,NaN,horizontal,horizontal,vertical,none,none,none
1c,4,100125,1,33,33,21,F,NA,variable,homogeneous,3,absent,0.992767095565796,1,horizontal,horizontal,1,0.87058114528656,red,2,NaN,1045.12173246427,529.712474266665,NaN,NaN,738.309916622085,847.425410200379,1045.12173246427,529.712474266665,616.568350913644,422.862115532956,0,0,0,0,0,0,0,4,0,NaN,NaN,NaN,vertical,horizontal,horizontal,none,none,none
1c,4,100125,1,34,34,21,F,NA,variable,homogeneous,4,present,0.974390029907227,1,vertical,vertical,1,0.682350783348084,green,3,4,684.232422566416,372.793336331966,572.793336331966,715.767577433584,915.767577433584,827.206663668034,1027.20666366803,484.232422566416,684.232422566416,372.793336331966,572.793336331966,715.767577433584,0,0,0,0,0,0,4,0,NaN,NaN,horizontal,horizontal,vertical,vertical,none,none
1c,4,100125,1,35,35,21,F,NA,variable,homogeneous,3,present,0.604815006256104,1,vertical,vertical,1,0.929403133392334,green,1,3,684.232422566416,827.206663668034,661.117046071168,386.139005173917,684.232422566416,827.206663668034,1054.65053136242,586.654331158049,661.117046071168,386.139005173917,0,0,0,0,0,0,4,0,0,NaN,NaN,NaN,vertical,vertical,vertical,none,none,none
1c,4,100125,1,36,36,21,F,NA,variable,homogeneous,5,absent,0.553772926330566,1,vertical,vertical,1,0.847052350044251,red,3,NaN,907.767656743878,368.891514305654,NaN,NaN,848.656293821019,850.314931779154,1053.09926866854,631.076682568313,907.767656743878,368.891514305654,613.504806087112,426.090418184063,576.971974679454,723.626453162816,0,0,0,0,4,0,0,NaN,vertical,vertical,vertical,horizontal,horizontal,none
1c,4,100125,1,37,37,21,F,NA,variable,homogeneous,5,absent,1.20128083229065,1,horizontal,horizontal,1,0.611764397621155,green,3,NaN,1039.62161830041,512.784863451954,NaN,NaN,657.405809614959,811.404581001536,956.993676208043,800.942742169714,1039.62161830041,512.784863451954,791.100628340862,345.155339110131,554.878267535729,529.712474266665,0,0,0,0,4,0,0,NaN,horizontal,vertical,horizontal,horizontal,vertical,none
1c,4,100125,1,38,38,21,F,NA,variable,homogeneous,5,absent,0.827696084976196,1,horizontal,horizontal,1,0.905874338150024,green,4,NaN,619.68777079743,419.68777079743,NaN,NaN,839.890788585259,851.86052685176,1051.86052685176,639.890788585259,915.767577433584,372.793336331966,619.68777079743,419.68777079743,572.793336331966,715.767577433584,0,0,0,0,0,4,0,NaN,horizontal,vertical,horizontal,horizontal,horizontal,none
1c,4,100125,1,39,39,21,F,NA,variable,homogeneous,5,absent,0.79441499710083,1,vertical,vertical,1,0.89410994052887,red,2,NaN,1048.46436652023,542.637481142314,NaN,NaN,931.334709102064,818.577661679039,1048.46436652023,542.637481142314,822.224714400653,345.970351986605,565.271262369628,500.363562235235,632.704947607421,792.450942956807,0,0,0,4,0,0,0,NaN,vertical,vertical,vertical,vertical,horizontal,none
1c,4,100125,1,40,40,21,F,NA,variable,homogeneous,3,present,0.659079074859619,1,horizontal,horizontal,1,0.647057590484619,green,3,1,672.5,379.163522034968,672.5,820.836477965032,672.5,820.836477965032,1055,600,672.5,379.163522034968,0,0,0,0,0,0,0,0,4,NaN,NaN,NaN,horizontal,vertical,horizontal,none,none,none
1c,4,100125,1,41,41,21,F,NA,variable,homogeneous,5,absent,0.808394908905029,1,vertical,vertical,1,0.988225121498108,green,5,NaN,639.523300282292,798.172220171528,NaN,NaN,938.882953928832,813.860994826083,1046.31108570371,534.001143498857,813.345668841951,345.349468637584,561.936991243214,508.616172865948,639.523300282292,798.172220171528,0,0,0,0,0,0,4,NaN,horizontal,vertical,horizontal,vertical,vertical,none
1c,4,100125,1,42,42,21,F,NA,variable,homogeneous,5,present,0.695464134216309,1,horizontal,horizontal,1,0.741172771453857,red,1,2,861.690083377915,847.425410200379,1054.37883281626,617.787900804752,861.690083377915,847.425410200379,1054.37883281626,617.787900804752,895.524681321058,363.568117085469,604.658667004661,436.089159529932,583.747735480111,735.129412379467,0,0,4,0,0,0,0,NaN,horizontal,vertical,vertical,horizontal,horizontal,none
1c,4,100125,1,43,43,21,F,NA,variable,homogeneous,3,absent,0.551389932632446,1,horizontal,horizontal,1,0.89410994052887,green,3,NaN,546.39691668109,626.654758133252,NaN,NaN,949.885239334581,806.299333565612,903.717843984329,367.045908301137,546.39691668109,626.654758133252,0,0,0,0,0,0,0,0,4,NaN,NaN,NaN,horizontal,vertical,horizontal,none,none,none
1c,4,100125,1,44,44,21,F,NA,variable,homogeneous,5,present,0.582741975784302,1,vertical,vertical,1,0.999989519119263,red,3,4,1008.88377129369,453.738008730483,725.445215295702,356.142287229426,716.980120613425,841.107236777826,1003.65205506206,753.462830903772,1008.88377129369,453.738008730483,725.445215295702,356.142287229426,545.03883773512,595.549636358493,0,0,0,0,4,0,0,NaN,vertical,vertical,vertical,horizontal,vertical,none
1c,4,100125,1,45,45,21,F,NA,variable,homogeneous,6,absent,0.491847991943359,1,horizontal,horizontal,1,0.670586385726929,green,6,NaN,545.03883773512,604.450363641507,NaN,NaN,676.373546837184,823.028025320546,931.334709102064,818.577661679039,1054.96116226488,595.549636358493,923.626453162816,376.971974679454,668.665290897936,381.422338320961,545.03883773512,604.450363641507,0,0,0,0,0,4,horizontal,vertical,vertical,horizontal,horizontal,horizontal
1c,4,100125,1,46,46,21,F,NA,variable,homogeneous,4,present,0.569674015045166,1,horizontal,horizontal,1,1.01175391674042,red,4,3,563.568117085469,504.475318678942,895.524681321058,363.568117085469,704.475318678942,836.431882914531,1036.43188291453,695.524681321058,895.524681321058,363.568117085469,563.568117085469,504.475318678942,0,0,0,0,0,0,0,4,NaN,NaN,horizontal,vertical,horizontal,horizontal,none,none
1c,4,100125,1,47,47,21,F,NA,variable,homogeneous,4,present,0.766726970672607,1,vertical,vertical,1,0.858816747665405,red,4,2,593.700666434388,450.114760665419,1006.29933356561,749.885239334581,650.114760665419,806.299333565612,1006.29933356561,749.885239334581,949.885239334581,393.700666434388,593.700666434388,450.114760665419,0,0,0,0,0,0,0,4,NaN,NaN,horizontal,vertical,horizontal,vertical,none,none
1c,4,100125,1,48,48,21,F,NA,variable,homogeneous,6,absent,0.561946868896484,1,horizontal,horizontal,1,0.788230361938477,red,6,NaN,558.892763222174,683.019879386575,NaN,NaN,751.343706178981,850.314931779154,992.450942956807,767.295052392579,1041.10723677783,516.980120613425,848.656293821019,349.685068220846,607.549057043193,432.704947607421,558.892763222174,683.019879386575,0,0,0,0,0,4,horizontal,vertical,horizontal,horizontal,horizontal,horizontal
1c,4,100125,1,49,49,21,F,NA,variable,homogeneous,3,absent,0.677366971969604,1,vertical,vertical,1,0.999989519119263,red,2,NaN,1036.43188291453,504.475318678942,NaN,NaN,764.510859255183,852.518357529101,1036.43188291453,504.475318678942,599.057257830286,443.006323791957,0,0,0,0,0,0,0,4,0,NaN,NaN,NaN,vertical,vertical,horizontal,none,none,none
1c,4,100125,1,50,50,21,F,NA,variable,homogeneous,6,present,0.535431861877441,1,horizontal,horizontal,1,0.611764397621155,green,6,4,552.574589799621,661.690083377915,870.287525733335,354.878267535729,729.712474266665,845.121732464271,977.137884467044,783.431649086356,1047.42541020038,538.309916622085,870.287525733335,354.878267535729,622.862115532956,416.568350913644,552.574589799621,661.690083377915,0,0,0,0,0,4,horizontal,horizontal,horizontal,vertical,horizontal,horizontal
1c,4,100125,1,51,51,21,F,NA,variable,homogeneous,6,absent,0.572973012924194,1,vertical,vertical,1,0.941167531013489,green,2,NaN,1050.31493177915,648.656293821019,NaN,NaN,883.019879386575,841.107236777826,1050.31493177915,648.656293821019,967.295052392579,407.549057043193,716.980120613425,358.892763222174,549.685068220846,551.343706178981,632.704947607421,792.450942956807,0,4,0,0,0,0,horizontal,vertical,horizontal,horizontal,horizontal,horizontal
1c,4,100125,1,52,52,21,F,NA,variable,homogeneous,6,present,0.534305095672607,1,horizontal,horizontal,1,0.694115180969238,red,5,3,545.349468637584,586.654331158049,938.882953928832,386.139005173917,915.767577433584,827.206663668034,1054.65053136242,613.345668841951,938.882953928832,386.139005173917,684.232422566416,372.793336331966,545.349468637584,586.654331158049,661.117046071168,813.860994826083,0,0,0,0,4,0,horizontal,vertical,horizontal,vertical,horizontal,horizontal
1c,4,100125,1,53,53,21,F,NA,variable,homogeneous,4,present,0.632197856903076,1,vertical,vertical,1,0.752937169075012,red,2,4,1053.60308331891,626.654758133252,546.39691668109,573.345241866748,773.345241866748,853.60308331891,1053.60308331891,626.654758133252,826.654758133252,346.39691668109,546.39691668109,573.345241866748,0,0,0,0,0,4,0,0,NaN,NaN,vertical,vertical,vertical,vertical,none,none
1c,4,100125,1,54,54,21,F,NA,variable,homogeneous,5,present,1.13487482070923,1,vertical,vertical,1,0.89410994052887,green,4,5,721.200666434388,357.480588344736,545,600,721.200666434388,842.519411655264,1006.29933356561,749.885239334581,1006.29933356561,450.114760665419,721.200666434388,357.480588344736,545,600,0,0,0,0,0,4,0,NaN,horizontal,vertical,horizontal,vertical,vertical,none
1c,4,100125,1,55,55,21,F,NA,variable,homogeneous,5,absent,0.572901010513306,1,horizontal,horizontal,1,0.764701566696167,red,4,NaN,563.568117085469,504.475318678942,NaN,NaN,935.129412379467,816.252264519889,1047.42541020038,538.309916622085,817.787900804752,345.621167183745,563.568117085469,504.475318678942,636.089159529932,795.341332995339,0,0,0,0,0,4,0,NaN,horizontal,horizontal,horizontal,horizontal,horizontal,none
1c,4,100125,1,56,56,21,F,NA,variable,homogeneous,5,present,0.812157869338989,1,horizontal,horizontal,1,0.976460723876953,green,1,4,777.775285599347,854.029648013395,668.665290897936,381.422338320961,777.775285599347,854.029648013395,1034.72873763037,699.636437764765,967.295052392579,407.549057043193,668.665290897936,381.422338320961,551.535633479765,657.362518857686,0,0,4,0,0,0,0,NaN,horizontal,horizontal,vertical,vertical,vertical,none
1c,4,100125,1,57,57,21,F,NA,variable,homogeneous,4,absent,0.64605188369751,1,horizontal,horizontal,1,0.670586385726929,green,1,NaN,817.787900804752,854.378832816255,NaN,NaN,817.787900804752,854.378832816255,1054.37883281626,582.212099195248,782.212099195248,345.621167183745,545.621167183745,617.787900804752,0,0,0,0,4,0,0,0,NaN,NaN,horizontal,vertical,vertical,vertical,none,none
1c,4,100125,1,58,58,21,F,NA,variable,homogeneous,6,present,0.597552061080933,1,horizontal,horizontal,1,0.717643976211548,green,4,6,738.309916622085,352.574589799621,616.568350913644,777.137884467044,861.690083377915,847.425410200379,1045.12173246427,670.287525733335,983.431649086356,422.862115532956,738.309916622085,352.574589799621,554.878267535729,529.712474266665,616.568350913644,777.137884467044,0,0,0,4,0,0,vertical,horizontal,vertical,horizontal,vertical,vertical
1c,4,100125,1,59,59,21,F,NA,variable,homogeneous,6,absent,0.681192874908447,1,vertical,vertical,1,0.788230361938477,green,5,NaN,604.658667004661,436.089159529932,NaN,NaN,755.719714694933,851.125977018113,995.341332995339,763.910840470068,1039.62161830041,512.784863451954,844.280285305067,348.874022981887,604.658667004661,436.089159529932,560.378381699593,687.215136548046,0,0,0,0,4,0,vertical,vertical,vertical,vertical,vertical,vertical
1c,4,100125,1,60,60,21,F,NA,variable,homogeneous,3,present,0.759495973587036,1,horizontal,horizontal,1,0.811759157180786,green,2,1,967.295052392579,407.549057043193,883.019879386575,841.107236777826,883.019879386575,841.107236777826,967.295052392579,407.549057043193,549.685068220846,551.343706178981,0,0,0,0,0,0,0,4,0,NaN,NaN,NaN,vertical,horizontal,vertical,none,none,none
1c,4,100125,1,61,61,21,F,NA,variable,homogeneous,6,present,0.828275918960571,1,vertical,vertical,1,0.670586385726929,green,3,4,931.334709102064,381.422338320961,676.373546837184,376.971974679454,923.626453162816,823.028025320546,1054.96116226488,604.450363641507,931.334709102064,381.422338320961,676.373546837184,376.971974679454,545.03883773512,595.549636358493,668.665290897936,818.577661679039,0,0,4,0,0,0,horizontal,horizontal,vertical,vertical,vertical,horizontal
1c,4,100125,1,62,62,21,F,NA,variable,homogeneous,5,present,1.10173106193542,1,vertical,vertical,1,0.635293192863464,red,3,1,1003.65205506206,446.537169096228,725.445215295702,843.857712770574,725.445215295702,843.857712770574,1008.88377129369,746.261991269517,1003.65205506206,446.537169096228,716.980120613425,358.892763222174,545.03883773512,604.450363641507,0,0,0,0,4,0,0,NaN,vertical,horizontal,vertical,vertical,vertical,none
1c,4,100125,1,63,63,21,F,NA,variable,homogeneous,5,absent,0.791263103485107,1,vertical,vertical,1,0.964696326255798,green,1,NaN,831.076682568313,853.099268668537,NaN,NaN,831.076682568313,853.099268668537,1050.31493177915,648.656293821019,923.626453162816,376.971974679454,626.090418184063,413.504806087112,568.891514305654,707.767656743878,0,0,4,0,0,0,0,NaN,vertical,vertical,horizontal,horizontal,vertical,none
1c,4,100125,1,64,64,21,F,NA,variable,homogeneous,3,absent,0.943000078201294,1,vertical,vertical,1,0.999989519119263,green,1,NaN,593.700666434388,749.885239334581,NaN,NaN,593.700666434388,749.885239334581,1032.95409169886,703.717843984329,773.345241866748,346.39691668109,0,0,0,0,0,0,4,0,0,NaN,NaN,NaN,vertical,horizontal,vertical,none,none,none
1c,4,100125,2,1,65,21,F,NA,variable,homogeneous,3,absent,0.0710499286651611,1,horizontal,horizontal,1,1.02351831436157,red,2,NaN,1054.65053136242,586.654331158049,NaN,NaN,684.232422566416,827.206663668034,1054.65053136242,586.654331158049,661.117046071168,386.139005173917,0,0,0,0,0,0,0,4,0,NaN,NaN,NaN,horizontal,horizontal,vertical,none,none,none
1c,4,100125,2,2,66,21,F,NA,variable,homogeneous,4,present,0.63879919052124,1,vertical,vertical,1,0.917638735771179,red,4,1,554.878267535729,670.287525733335,870.287525733335,845.121732464271,870.287525733335,845.121732464271,1045.12173246427,529.712474266665,729.712474266665,354.878267535729,554.878267535729,670.287525733335,0,0,0,0,0,0,0,4,NaN,NaN,vertical,vertical,vertical,vertical,none,none
1c,4,100125,2,3,67,21,F,NA,variable,homogeneous,6,absent,0.517078161239624,1,vertical,vertical,1,1.05881150722504,green,2,NaN,1054.37883281626,617.787900804752,NaN,NaN,911.784642431215,829.192481806288,1054.37883281626,617.787900804752,942.594190385041,388.595418998464,688.215357568785,370.807518193712,545.621167183745,582.212099195248,657.405809614959,811.404581001536,0,4,0,0,0,0,horizontal,vertical,vertical,horizontal,vertical,horizontal
1c,4,100125,2,4,68,21,F,NA,variable,homogeneous,6,absent,0.878756999969482,1,vertical,vertical,1,0.741172771453857,green,5,NaN,596.34794493794,446.537169096228,NaN,NaN,768.923317431687,853.099268668537,1003.65205506206,753.462830903772,1034.72873763037,500.363562235235,831.076682568313,346.900731331463,596.34794493794,446.537169096228,565.271262369628,699.636437764765,0,0,0,0,4,0,horizontal,vertical,horizontal,vertical,vertical,vertical
1c,4,100125,2,5,69,21,F,NA,variable,homogeneous,5,absent,0.658300876617432,1,horizontal,horizontal,1,0.905874338150024,green,3,NaN,899.636437764765,365.271262369628,NaN,NaN,857.362518857686,848.464366520235,1054.0296480134,622.224714400653,899.636437764765,365.271262369628,607.549057043193,432.704947607421,581.422338320961,731.334709102064,0,0,0,0,4,0,0,NaN,horizontal,vertical,horizontal,horizontal,horizontal,none
1c,4,100125,2,6,70,21,F,NA,variable,homogeneous,5,present,0.964523077011108,1,vertical,vertical,1,0.847052350044251,green,3,4,938.882953928832,386.139005173917,639.523300282292,401.827779828472,813.345668841951,854.650531362416,1046.31108570371,665.998856501143,938.882953928832,386.139005173917,639.523300282292,401.827779828472,561.936991243214,691.383827134052,0,0,0,0,4,0,0,NaN,vertical,vertical,vertical,horizontal,horizontal,none
1c,4,100125,2,7,71,21,F,NA,variable,homogeneous,6,absent,0.875919103622437,1,horizontal,horizontal,1,0.776465964317322,red,2,NaN,1018.57766167904,731.334709102064,NaN,NaN,795.549636358493,854.96116226488,1018.57766167904,731.334709102064,1023.02802532055,476.373546837184,804.450363641507,345.03883773512,581.422338320961,468.665290897936,576.971974679454,723.626453162816,0,4,0,0,0,0,horizontal,horizontal,horizontal,vertical,horizontal,vertical
1c,4,100125,2,8,72,21,F,NA,variable,homogeneous,6,absent,0.601505994796753,1,horizontal,horizontal,1,1.02351831436157,green,4,NaN,804.450363641507,345.03883773512,NaN,NaN,795.549636358493,854.96116226488,1018.57766167904,731.334709102064,1023.02802532055,476.373546837184,804.450363641507,345.03883773512,581.422338320961,468.665290897936,576.971974679454,723.626453162816,0,0,0,4,0,0,horizontal,vertical,horizontal,horizontal,vertical,vertical
1c,4,100125,2,9,73,21,F,NA,variable,homogeneous,3,present,0.540699005126953,1,horizontal,horizontal,1,0.729408373832703,red,1,3,813.345668841951,854.650531362416,572.793336331966,484.232422566416,813.345668841951,854.650531362416,1013.86099482608,461.117046071168,572.793336331966,484.232422566416,0,0,0,0,0,0,4,0,0,NaN,NaN,NaN,horizontal,vertical,horizontal,none,none,none
1c,4,100125,2,10,74,21,F,NA,variable,homogeneous,4,absent,0.513277053833008,1,vertical,vertical,1,0.658821988105774,green,3,NaN,870.287525733335,354.878267535729,NaN,NaN,729.712474266665,845.121732464271,1045.12173246427,670.287525733335,870.287525733335,354.878267535729,554.878267535729,529.712474266665,0,0,0,0,0,0,4,0,NaN,NaN,horizontal,vertical,vertical,horizontal,none,none
1c,4,100125,2,11,75,21,F,NA,variable,homogeneous,4,present,0.641008853912354,1,horizontal,horizontal,1,1.08234030246735,red,1,3,861.690083377915,847.425410200379,738.309916622085,352.574589799621,861.690083377915,847.425410200379,1047.42541020038,538.309916622085,738.309916622085,352.574589799621,552.574589799621,661.690083377915,0,0,0,0,4,0,0,0,NaN,NaN,horizontal,horizontal,vertical,vertical,none,none
1c,4,100125,2,12,76,21,F,NA,variable,homogeneous,4,present,0.565641164779663,1,vertical,vertical,1,0.788230361938477,green,3,2,643.006323791957,399.057257830286,1000.94274216971,443.006323791957,956.993676208043,800.942742169714,1000.94274216971,443.006323791957,643.006323791957,399.057257830286,599.057257830286,756.993676208043,0,0,0,0,0,0,4,0,NaN,NaN,horizontal,horizontal,vertical,vertical,none,none
1c,4,100125,2,13,77,21,F,NA,variable,homogeneous,3,present,0.66686487197876,1,horizontal,horizontal,1,0.682350783348084,green,1,3,591.116228706307,746.261991269517,777.775285599347,345.970351986605,591.116228706307,746.261991269517,1031.10848569435,707.767656743878,777.775285599347,345.970351986605,0,0,0,0,0,0,4,0,0,NaN,NaN,NaN,horizontal,horizontal,vertical,none,none,none
1c,4,100125,2,14,78,21,F,NA,variable,homogeneous,3,absent,0.552357912063599,1,vertical,vertical,1,1.01175391674042,red,1,NaN,664.870587620533,816.252264519889,NaN,NaN,664.870587620533,816.252264519889,1054.84466088987,608.899371659138,680.284751489598,374.848363820974,0,0,0,0,0,0,4,0,0,NaN,NaN,NaN,vertical,horizontal,vertical,none,none,none
1c,4,100125,2,15,79,21,F,NA,variable,homogeneous,3,present,0.514103889465332,0,vertical,horizontal,1,0.705879578590393,green,1,2,588.595418998464,742.594190385041,1029.19248180629,711.784642431215,588.595418998464,742.594190385041,1029.19248180629,711.784642431215,782.212099195248,345.621167183745,0,0,0,0,0,0,4,0,0,NaN,NaN,NaN,vertical,horizontal,vertical,none,none,none
1c,4,100125,2,16,80,21,F,NA,variable,homogeneous,3,present,0.549341917037964,0,horizontal,vertical,1,1.04704710960388,green,1,3,822.224714400653,854.029648013395,568.891514305654,492.232343256122,822.224714400653,854.029648013395,1008.88377129369,453.738008730483,568.891514305654,492.232343256122,0,0,0,0,0,0,4,0,0,NaN,NaN,NaN,horizontal,horizontal,horizontal,none,none,none
1c,4,100125,2,17,81,21,F,NA,variable,homogeneous,5,absent,0.848321914672852,1,horizontal,horizontal,1,0.988225121498108,red,5,NaN,545.03883773512,604.450363641507,NaN,NaN,725.445215295702,843.857712770574,1008.88377129369,746.261991269517,1003.65205506206,446.537169096228,716.980120613425,358.892763222174,545.03883773512,604.450363641507,0,0,0,0,0,0,4,NaN,vertical,horizontal,vertical,horizontal,horizontal,none
1c,4,100125,2,18,82,21,F,NA,variable,homogeneous,4,present,0.663010120391846,1,horizontal,horizontal,1,1.07057590484619,green,3,4,646.537169096228,396.34794493794,596.34794493794,753.462830903772,953.462830903772,803.65205506206,1003.65205506206,446.537169096228,646.537169096228,396.34794493794,596.34794493794,753.462830903772,0,0,0,0,0,0,4,0,NaN,NaN,horizontal,vertical,horizontal,vertical,none,none
1c,4,100125,2,19,83,21,F,NA,variable,homogeneous,5,absent,0.528810024261475,1,horizontal,horizontal,1,0.823523554801941,green,1,NaN,721.200666434388,842.519411655264,NaN,NaN,721.200666434388,842.519411655264,1006.29933356561,749.885239334581,1006.29933356561,450.114760665419,721.200666434388,357.480588344736,545,600,0,0,4,0,0,0,0,NaN,horizontal,vertical,vertical,horizontal,vertical,none
1c,4,100125,2,20,84,21,F,NA,variable,homogeneous,3,absent,0.522259950637817,0,horizontal,vertical,1,0.729408373832703,green,2,NaN,923.626453162816,376.971974679454,NaN,NaN,931.334709102064,818.577661679039,923.626453162816,376.971974679454,545.03883773512,604.450363641507,0,0,0,0,0,0,0,4,0,NaN,NaN,NaN,horizontal,horizontal,vertical,none,none,none
1c,4,100125,2,21,85,21,F,NA,variable,homogeneous,3,absent,0.822856903076172,0,horizontal,vertical,1,0.705879578590393,green,2,NaN,1054.84466088987,591.100628340862,NaN,NaN,680.284751489598,825.151636179026,1054.84466088987,591.100628340862,664.870587620533,383.747735480111,0,0,0,0,0,0,0,4,0,NaN,NaN,NaN,vertical,horizontal,horizontal,none,none,none
1c,4,100125,2,22,86,21,F,NA,variable,homogeneous,6,present,0.850775003433228,1,horizontal,horizontal,1,0.752937169075012,red,5,6,568.891514305654,492.232343256122,591.116228706307,746.261991269517,822.224714400653,854.029648013395,1031.10848569435,707.767656743878,1008.88377129369,453.738008730483,777.775285599347,345.970351986605,568.891514305654,492.232343256122,591.116228706307,746.261991269517,0,0,0,0,4,0,vertical,horizontal,vertical,horizontal,horizontal,horizontal
1c,4,100125,2,23,87,21,F,NA,variable,homogeneous,4,absent,0.78182578086853,0,horizontal,vertical,1,0.682350783348084,red,1,NaN,822.224714400653,854.029648013395,NaN,NaN,822.224714400653,854.029648013395,1054.0296480134,577.775285599347,777.775285599347,345.970351986605,545.970351986605,622.224714400653,0,0,0,0,4,0,0,0,NaN,NaN,horizontal,vertical,vertical,vertical,none,none
1c,4,100125,2,24,88,21,F,NA,variable,homogeneous,6,present,0.887701034545898,1,horizontal,horizontal,1,0.705879578590393,green,3,4,973.909581815937,413.504806087112,725.445215295702,356.142287229426,874.554784704298,843.857712770574,1048.46436652023,657.362518857686,973.909581815937,413.504806087112,725.445215295702,356.142287229426,551.535633479765,542.637481142314,626.090418184063,786.495193912888,0,0,4,0,0,0,horizontal,vertical,horizontal,horizontal,vertical,vertical
1c,4,100125,2,25,89,21,F,NA,variable,homogeneous,5,absent,0.677211999893188,1,vertical,vertical,1,0.788230361938477,green,1,NaN,857.362518857686,848.464366520235,NaN,NaN,857.362518857686,848.464366520235,1054.0296480134,622.224714400653,899.636437764765,365.271262369628,607.549057043193,432.704947607421,581.422338320961,731.334709102064,0,0,4,0,0,0,0,NaN,vertical,vertical,horizontal,vertical,vertical,none
1c,4,100125,2,26,90,21,F,NA,variable,homogeneous,4,absent,0.597362995147705,0,horizontal,vertical,1,0.917638735771179,green,2,NaN,998.172220171528,760.476699717708,NaN,NaN,639.523300282292,798.172220171528,998.172220171528,760.476699717708,960.476699717708,401.827779828472,601.827779828472,439.523300282291,0,0,0,0,0,4,0,0,NaN,NaN,vertical,horizontal,vertical,horizontal,none,none
1c,4,100125,2,27,91,21,F,NA,variable,homogeneous,6,present,0.871096849441528,0,horizontal,vertical,1,1.0941047000885,green,2,3,1054.96116226488,604.450363641507,931.334709102064,381.422338320961,923.626453162816,823.028025320546,1054.96116226488,604.450363641507,931.334709102064,381.422338320961,676.373546837184,376.971974679454,545.03883773512,595.549636358493,668.665290897936,818.577661679039,0,4,0,0,0,0,horizontal,horizontal,horizontal,horizontal,vertical,horizontal
1c,4,100125,2,28,92,21,F,NA,variable,homogeneous,6,present,NaN,0,vertical,none,0,0.694115180969238,red,4,3,800,345,1020.83647796503,472.5,800,855,1020.83647796503,727.5,1020.83647796503,472.5,800,345,579.163522034968,472.5,579.163522034968,727.5,0,0,0,4,0,0,vertical,horizontal,horizontal,vertical,vertical,horizontal
1c,4,100125,2,29,93,21,F,NA,variable,homogeneous,6,absent,1.71525311470032,1,vertical,vertical,1,1.02351831436157,red,5,NaN,581.422338320961,468.665290897936,NaN,NaN,795.549636358493,854.96116226488,1018.57766167904,731.334709102064,1023.02802532055,476.373546837184,804.450363641507,345.03883773512,581.422338320961,468.665290897936,576.971974679454,723.626453162816,0,0,0,0,4,0,vertical,vertical,horizontal,horizontal,vertical,vertical
1c,4,100125,2,30,94,21,F,NA,variable,homogeneous,4,present,0.759341955184937,1,vertical,vertical,1,0.87058114528656,red,2,4,1038.06300875679,508.616172865948,561.936991243214,691.383827134052,891.383827134052,838.063008756786,1038.06300875679,508.616172865948,708.616172865948,361.936991243214,561.936991243214,691.383827134052,0,0,0,0,0,4,0,0,NaN,NaN,horizontal,vertical,vertical,vertical,none,none
1c,4,100125,2,31,95,21,F,NA,variable,homogeneous,5,present,0.630707979202271,1,vertical,vertical,1,1.01175391674042,green,2,5,1054.84466088987,608.899371659138,588.595418998464,742.594190385041,870.287525733335,845.121732464271,1054.84466088987,608.899371659138,887.215136548046,360.378381699593,599.057257830286,443.006323791957,588.595418998464,742.594190385041,0,0,0,4,0,0,0,NaN,horizontal,vertical,vertical,vertical,vertical,none
1c,4,100125,2,32,96,21,F,NA,variable,homogeneous,5,absent,0.572863101959229,1,vertical,vertical,1,1.07057590484619,red,2,NaN,1052.5183575291,635.489140744817,NaN,NaN,844.280285305067,851.125977018113,1052.5183575291,635.489140744817,911.784642431215,370.807518193712,616.568350913644,422.862115532956,574.848363820974,719.715248510402,0,0,0,4,0,0,0,NaN,vertical,vertical,horizontal,horizontal,horizontal,none
1c,4,100125,2,33,97,21,F,NA,variable,homogeneous,5,absent,0.680879831314087,1,vertical,vertical,1,0.611764397621155,red,4,NaN,800,345,NaN,NaN,650.114760665419,806.299333565612,949.885239334581,806.299333565612,1042.51941165526,521.200666434388,800,345,557.480588344736,521.200666434388,0,0,0,0,0,4,0,NaN,vertical,vertical,horizontal,vertical,vertical,none
1c,4,100125,2,34,98,21,F,NA,variable,homogeneous,3,absent,0.707145929336548,1,vertical,vertical,1,1.02351831436157,green,3,NaN,572.793336331966,715.767577433584,NaN,NaN,1013.86099482608,738.882953928832,813.345668841951,345.349468637584,572.793336331966,715.767577433584,0,0,0,0,0,0,0,0,4,NaN,NaN,NaN,horizontal,horizontal,vertical,none,none,none
1c,4,100125,2,35,99,21,F,NA,variable,homogeneous,3,absent,1.21068596839905,1,horizontal,horizontal,1,0.858816747665405,red,2,NaN,857.362518857686,351.535633479765,NaN,NaN,986.495193912888,773.909581815937,857.362518857686,351.535633479765,556.142287229426,674.554784704298,0,0,0,0,0,0,0,4,0,NaN,NaN,NaN,horizontal,horizontal,horizontal,none,none,none
1c,4,100125,2,36,100,21,F,NA,variable,homogeneous,4,present,0.947736024856567,1,horizontal,horizontal,1,1.02351831436157,green,2,1,1003.65205506206,446.537169096228,953.462830903772,803.65205506206,953.462830903772,803.65205506206,1003.65205506206,446.537169096228,646.537169096228,396.34794493794,596.34794493794,753.462830903772,0,0,0,0,0,4,0,0,NaN,NaN,vertical,horizontal,vertical,horizontal,none,none
1c,4,100125,2,37,101,21,F,NA,variable,homogeneous,4,absent,0.747384071350098,1,vertical,vertical,1,1.02351831436157,red,1,NaN,878.799333565612,842.519411655264,NaN,NaN,878.799333565612,842.519411655264,1042.51941165526,521.200666434388,721.200666434388,357.480588344736,557.480588344736,678.799333565612,0,0,0,0,4,0,0,0,NaN,NaN,vertical,horizontal,horizontal,horizontal,none,none
1c,4,100125,2,38,102,21,F,NA,variable,homogeneous,6,present,0.90707802772522,1,vertical,vertical,1,0.847052350044251,green,3,6,1054.37883281626,582.212099195248,545.621167183745,617.787900804752,688.215357568785,829.192481806288,942.594190385041,811.404581001536,1054.37883281626,582.212099195248,911.784642431215,370.807518193712,657.405809614959,388.595418998464,545.621167183745,617.787900804752,0,0,4,0,0,0,vertical,vertical,vertical,horizontal,horizontal,vertical
1c,4,100125,2,39,103,21,F,NA,variable,homogeneous,4,present,1.12166094779968,1,horizontal,horizontal,1,1.01175391674042,red,2,1,1016.25226451989,735.129412379467,664.870587620533,816.252264519889,664.870587620533,816.252264519889,1016.25226451989,735.129412379467,935.129412379467,383.747735480111,583.747735480111,464.870587620533,0,0,0,0,0,4,0,0,NaN,NaN,horizontal,horizontal,vertical,horizontal,none,none
1c,4,100125,2,40,104,21,F,NA,variable,homogeneous,6,absent,0.825038909912109,1,vertical,vertical,1,1.02351831436157,red,3,NaN,992.450942956807,432.704947607421,NaN,NaN,848.656293821019,850.314931779154,1041.10723677783,683.019879386575,992.450942956807,432.704947607421,751.343706178981,349.685068220846,558.892763222174,516.980120613425,607.549057043193,767.295052392579,0,0,4,0,0,0,vertical,vertical,vertical,horizontal,horizontal,horizontal
1c,4,100125,2,41,105,21,F,NA,variable,homogeneous,5,present,1.19538307189941,1,vertical,vertical,1,1.08234030246735,red,1,2,742.637481142314,848.464366520235,1018.57766167904,731.334709102064,742.637481142314,848.464366520235,1018.57766167904,731.334709102064,992.450942956807,432.704947607421,700.363562235235,365.271262369628,545.970351986605,622.224714400653,0,0,4,0,0,0,0,NaN,vertical,vertical,vertical,vertical,horizontal,none
1c,4,100125,2,42,106,21,F,NA,variable,homogeneous,6,absent,0.814863920211792,1,horizontal,horizontal,1,0.764701566696167,red,2,NaN,949.885239334581,806.299333565612,NaN,NaN,696.282156015671,832.954091698863,949.885239334581,806.299333565612,1053.60308331891,573.345241866748,903.717843984329,367.045908301137,650.114760665419,393.700666434388,546.39691668109,626.654758133252,0,4,0,0,0,0,vertical,horizontal,vertical,vertical,vertical,vertical
1c,4,100125,2,43,107,21,F,NA,variable,homogeneous,5,absent,0.61915397644043,1,vertical,vertical,1,0.988225121498108,green,3,NaN,907.767656743878,368.891514305654,NaN,NaN,848.656293821019,850.314931779154,1053.09926866854,631.076682568313,907.767656743878,368.891514305654,613.504806087112,426.090418184063,576.971974679454,723.626453162816,0,0,0,0,4,0,0,NaN,horizontal,vertical,vertical,horizontal,horizontal,none
1c,4,100125,2,44,108,21,F,NA,variable,homogeneous,5,present,1.34877896308899,1,horizontal,horizontal,1,0.87058114528656,green,4,3,746.982518841471,350.57236181288,1020.83647796503,472.5,696.282156015671,832.954091698863,989.501930496736,770.628304621509,1020.83647796503,472.5,746.982518841471,350.57236181288,546.39691668109,573.345241866748,0,0,0,0,0,4,0,NaN,vertical,vertical,horizontal,horizontal,horizontal,none
1c,4,100125,2,45,109,21,F,NA,variable,homogeneous,6,present,1.00396299362183,1,vertical,vertical,1,0.799994759559631,red,6,2,554.878267535729,670.287525733335,983.431649086356,777.137884467044,738.309916622085,847.425410200379,983.431649086356,777.137884467044,1045.12173246427,529.712474266665,861.690083377915,352.574589799621,616.568350913644,422.862115532956,554.878267535729,670.287525733335,0,0,0,0,0,4,vertical,vertical,horizontal,horizontal,horizontal,vertical
1c,4,100125,2,46,110,21,F,NA,variable,homogeneous,3,present,0.703721046447754,1,vertical,vertical,1,0.999989519119263,red,2,1,1049.42763818712,546.982518841471,721.200666434388,842.519411655264,721.200666434388,842.519411655264,1049.42763818712,546.982518841471,629.371695378491,410.498069503264,0,0,0,0,0,0,0,4,0,NaN,NaN,NaN,horizontal,vertical,horizontal,none,none,none
1c,4,100125,2,47,111,21,F,NA,variable,homogeneous,5,absent,0.614348888397217,1,horizontal,horizontal,1,0.999989519119263,red,4,NaN,616.568350913644,422.862115532956,NaN,NaN,844.280285305067,851.125977018113,1052.5183575291,635.489140744817,911.784642431215,370.807518193712,616.568350913644,422.862115532956,574.848363820974,719.715248510402,0,0,0,0,0,4,0,NaN,vertical,vertical,vertical,horizontal,vertical,none
1c,4,100125,2,48,112,21,F,NA,variable,homogeneous,3,absent,0.589424848556519,1,vertical,vertical,1,0.729408373832703,green,2,NaN,1023.02802532055,476.373546837184,NaN,NaN,795.549636358493,854.96116226488,1023.02802532055,476.373546837184,581.422338320961,468.665290897936,0,0,0,0,0,0,0,4,0,NaN,NaN,NaN,vertical,vertical,horizontal,none,none,none
1c,4,100125,2,49,113,21,F,NA,variable,homogeneous,4,absent,0.592399120330811,1,vertical,vertical,1,0.964696326255798,green,3,NaN,853.017481158529,350.57236181288,NaN,NaN,746.982518841471,849.42763818712,1049.42763818712,653.017481158529,853.017481158529,350.57236181288,550.57236181288,546.982518841471,0,0,0,0,0,0,4,0,NaN,NaN,vertical,vertical,vertical,horizontal,none,none
1c,4,100125,2,50,114,21,F,NA,variable,homogeneous,5,present,0.623847961425781,1,horizontal,horizontal,1,0.952931928634644,green,4,3,657.405809614959,388.595418998464,956.993676208043,399.057257830286,791.100628340862,854.844660889869,1039.62161830041,687.215136548046,956.993676208043,399.057257830286,657.405809614959,388.595418998464,554.878267535729,670.287525733335,0,0,0,0,0,4,0,NaN,horizontal,horizontal,horizontal,horizontal,vertical,none
1c,4,100125,2,51,115,21,F,NA,variable,homogeneous,3,present,0.71666693687439,1,horizontal,horizontal,1,0.999989519119263,red,3,1,632.704947607421,407.549057043193,716.980120613425,841.107236777826,716.980120613425,841.107236777826,1050.31493177915,551.343706178981,632.704947607421,407.549057043193,0,0,0,0,0,0,0,0,4,NaN,NaN,NaN,horizontal,horizontal,horizontal,none,none,none
1c,4,100125,2,52,116,21,F,NA,variable,homogeneous,4,present,0.913089036941528,1,vertical,vertical,1,0.882345542907715,green,3,4,746.982518841471,350.57236181288,550.57236181288,653.017481158529,853.017481158529,849.42763818712,1049.42763818712,546.982518841471,746.982518841471,350.57236181288,550.57236181288,653.017481158529,0,0,0,0,0,0,4,0,NaN,NaN,horizontal,horizontal,vertical,horizontal,none,none
1c,4,100125,2,53,117,21,F,NA,variable,homogeneous,5,present,0.761583089828491,1,vertical,vertical,1,0.929403133392334,red,1,5,808.899371659138,854.844660889869,560.378381699593,687.215136548046,808.899371659138,854.844660889869,1045.12173246427,670.287525733335,942.594190385041,388.595418998464,643.006323791957,399.057257830286,560.378381699593,687.215136548046,0,0,4,0,0,0,0,NaN,vertical,vertical,vertical,horizontal,horizontal,none
1c,4,100125,2,54,118,21,F,NA,variable,homogeneous,4,absent,0.647050142288208,1,horizontal,horizontal,1,0.694115180969238,green,4,NaN,588.595418998464,457.40580961496,NaN,NaN,657.405809614959,811.404581001536,1011.40458100154,742.594190385041,942.594190385041,388.595418998464,588.595418998464,457.40580961496,0,0,0,0,0,0,0,4,NaN,NaN,vertical,vertical,horizontal,horizontal,none,none
1c,4,100125,2,55,119,21,F,NA,variable,homogeneous,3,present,0.836413860321045,0,vertical,horizontal,1,0.799994759559631,red,3,2,567.045908301137,703.717843984329,826.654758133252,346.39691668109,1006.29933356561,749.885239334581,826.654758133252,346.39691668109,567.045908301137,703.717843984329,0,0,0,0,0,0,0,0,4,NaN,NaN,NaN,vertical,horizontal,vertical,none,none,none
1c,4,100125,2,56,120,21,F,NA,variable,homogeneous,5,present,1.44661593437195,1,horizontal,horizontal,1,0.670586385726929,red,3,2,963.910840470068,404.658667004661,1036.43188291453,695.524681321058,782.212099195248,854.378832816255,1036.43188291453,695.524681321058,963.910840470068,404.658667004661,664.870587620533,383.747735480111,552.574589799621,661.690083377915,0,0,0,0,4,0,0,NaN,horizontal,horizontal,horizontal,horizontal,horizontal,none
1c,4,100125,2,57,121,21,F,NA,variable,homogeneous,4,absent,0.59440279006958,1,vertical,vertical,1,0.929403133392334,red,4,NaN,572.793336331966,484.232422566416,NaN,NaN,684.232422566416,827.206663668034,1027.20666366803,715.767577433584,915.767577433584,372.793336331966,572.793336331966,484.232422566416,0,0,0,0,0,0,0,4,NaN,NaN,horizontal,horizontal,vertical,vertical,none,none
1c,4,100125,2,58,122,21,F,NA,variable,homogeneous,6,absent,0.710458040237427,1,horizontal,horizontal,1,1.01175391674042,green,4,NaN,857.362518857686,351.535633479765,NaN,NaN,742.637481142314,848.464366520235,986.495193912888,773.909581815937,1043.85771277057,525.445215295702,857.362518857686,351.535633479765,613.504806087112,426.090418184063,556.142287229426,674.554784704298,0,0,0,4,0,0,horizontal,vertical,vertical,horizontal,horizontal,horizontal
1c,4,100125,2,59,123,21,F,NA,variable,homogeneous,6,present,0.742387056350708,1,vertical,vertical,1,0.658821988105774,green,6,5,613.504806087112,773.909581815937,556.142287229426,525.445215295702,857.362518857686,848.464366520235,1043.85771277057,674.554784704298,986.495193912888,426.090418184063,742.637481142314,351.535633479765,556.142287229426,525.445215295702,613.504806087112,773.909581815937,0,0,0,0,0,4,vertical,vertical,vertical,vertical,vertical,vertical
1c,4,100125,2,60,124,21,F,NA,variable,homogeneous,6,present,0.562160968780518,1,horizontal,horizontal,1,0.835287952423096,red,5,2,653.738008730483,391.116228706307,946.261991269517,808.883771293693,692.232343256122,831.108485694346,946.261991269517,808.883771293693,1054.0296480134,577.775285599347,907.767656743878,368.891514305654,653.738008730483,391.116228706307,545.970351986605,622.224714400653,0,0,0,0,4,0,horizontal,horizontal,horizontal,vertical,horizontal,vertical
1c,4,100125,2,61,125,21,F,NA,variable,homogeneous,5,present,0.564766883850098,1,horizontal,horizontal,1,0.776465964317322,red,4,5,653.738008730483,391.116228706307,556.142287229426,674.554784704298,795.549636358493,854.96116226488,1041.10723677783,683.019879386575,953.462830903772,396.34794493794,653.738008730483,391.116228706307,556.142287229426,674.554784704298,0,0,0,0,0,4,0,NaN,vertical,vertical,horizontal,horizontal,vertical,none
1c,4,100125,2,62,126,21,F,NA,variable,homogeneous,3,absent,0.639584064483643,1,vertical,vertical,1,0.964696326255798,red,3,NaN,557.480588344736,678.799333565612,NaN,NaN,989.501930496736,770.628304621509,853.017481158529,350.57236181288,557.480588344736,678.799333565612,0,0,0,0,0,0,0,0,4,NaN,NaN,NaN,vertical,vertical,vertical,none,none,none
1c,4,100125,2,63,127,21,F,NA,variable,homogeneous,4,absent,0.558037996292114,1,horizontal,horizontal,1,0.858816747665405,red,4,NaN,619.68777079743,419.68777079743,NaN,NaN,619.68777079743,780.31222920257,980.31222920257,780.31222920257,980.31222920257,419.68777079743,619.68777079743,419.68777079743,0,0,0,0,0,0,0,4,NaN,NaN,horizontal,horizontal,vertical,horizontal,none,none
1c,4,100125,2,64,128,21,F,NA,variable,homogeneous,3,present,0.979640007019043,1,vertical,vertical,1,0.917638735771179,green,3,1,545.03883773512,604.450363641507,931.334709102064,818.577661679039,931.334709102064,818.577661679039,923.626453162816,376.971974679454,545.03883773512,604.450363641507,0,0,0,0,0,0,0,0,4,NaN,NaN,NaN,vertical,vertical,vertical,none,none,none
1c,4,100125,3,1,129,21,F,NA,variable,homogeneous,6,absent,0.858345985412598,1,horizontal,horizontal,1,1.07057590484619,red,1,NaN,857.362518857686,848.464366520235,NaN,NaN,857.362518857686,848.464366520235,1043.85771277057,674.554784704298,986.495193912888,426.090418184063,742.637481142314,351.535633479765,556.142287229426,525.445215295702,613.504806087112,773.909581815937,4,0,0,0,0,0,horizontal,horizontal,vertical,horizontal,vertical,vertical
1c,4,100125,3,2,130,21,F,NA,variable,homogeneous,3,present,0.786652088165283,1,vertical,vertical,1,0.752937169075012,red,1,2,692.232343256122,831.108485694346,1054.0296480134,577.775285599347,692.232343256122,831.108485694346,1054.0296480134,577.775285599347,653.738008730483,391.116228706307,0,0,0,0,0,0,4,0,0,NaN,NaN,NaN,vertical,vertical,vertical,none,none,none
1c,4,100125,3,3,131,21,F,NA,variable,homogeneous,4,absent,1.0154550075531,1,vertical,vertical,1,1.04704710960388,red,2,NaN,1038.06300875679,691.383827134052,NaN,NaN,708.616172865948,838.063008756786,1038.06300875679,691.383827134052,891.383827134052,361.936991243214,561.936991243214,508.616172865948,0,0,0,0,0,4,0,0,NaN,NaN,horizontal,vertical,vertical,horizontal,none,none
1c,4,100125,3,4,132,21,F,NA,variable,homogeneous,3,present,0.666365146636963,1,horizontal,horizontal,1,0.941167531013489,red,1,2,700.363562235235,834.728737630372,1053.09926866854,568.923317431687,700.363562235235,834.728737630372,1053.09926866854,568.923317431687,646.537169096228,396.34794493794,0,0,0,0,0,0,4,0,0,NaN,NaN,NaN,horizontal,horizontal,horizontal,none,none,none
1c,4,100125,3,5,133,21,F,NA,variable,homogeneous,4,absent,0.675426006317139,1,horizontal,horizontal,1,0.952931928634644,green,2,NaN,986.495193912888,426.090418184063,NaN,NaN,973.909581815937,786.495193912888,986.495193912888,426.090418184063,626.090418184063,413.504806087112,613.504806087112,773.909581815937,0,0,0,0,0,4,0,0,NaN,NaN,horizontal,horizontal,horizontal,vertical,none,none
1c,4,100125,3,6,134,21,F,NA,variable,homogeneous,4,absent,0.703384876251221,1,horizontal,horizontal,1,0.729408373832703,red,1,NaN,903.717843984329,832.954091698863,NaN,NaN,903.717843984329,832.954091698863,1032.95409169886,496.282156015671,696.282156015671,367.045908301137,567.045908301137,703.717843984329,0,0,0,0,4,0,0,0,NaN,NaN,horizontal,vertical,horizontal,vertical,none,none
1c,4,100125,3,7,135,21,F,NA,variable,homogeneous,5,absent,0.665579795837402,1,vertical,vertical,1,0.788230361938477,green,1,NaN,839.890788585259,851.86052685176,NaN,NaN,839.890788585259,851.86052685176,1051.86052685176,639.890788585259,915.767577433584,372.793336331966,619.68777079743,419.68777079743,572.793336331966,715.767577433584,0,0,4,0,0,0,0,NaN,vertical,vertical,horizontal,horizontal,horizontal,none
1c,4,100125,3,8,136,21,F,NA,variable,homogeneous,5,present,0.66932201385498,1,horizontal,horizontal,1,0.717643976211548,red,4,5,558.892763222174,516.980120613425,646.537169096228,803.65205506206,946.261991269517,808.883771293693,1043.85771277057,525.445215295702,804.450363641507,345.03883773512,558.892763222174,516.980120613425,646.537169096228,803.65205506206,0,0,0,0,0,4,0,NaN,vertical,vertical,horizontal,horizontal,vertical,none
1c,4,100125,3,9,137,21,F,NA,variable,homogeneous,4,absent,0.494235992431641,1,horizontal,horizontal,1,0.964696326255798,red,4,NaN,548.874022981887,555.719714694933,NaN,NaN,755.719714694933,851.125977018113,1051.12597701811,644.280285305067,844.280285305067,348.874022981887,548.874022981887,555.719714694933,0,0,0,0,0,0,0,4,NaN,NaN,vertical,vertical,vertical,horizontal,none,none
1c,4,100125,3,10,138,21,F,NA,variable,homogeneous,3,present,0.71694803237915,1,vertical,vertical,1,0.823523554801941,green,2,3,822.224714400653,345.970351986605,568.891514305654,707.767656743878,1008.88377129369,746.261991269517,822.224714400653,345.970351986605,568.891514305654,707.767656743878,0,0,0,0,0,0,0,4,0,NaN,NaN,NaN,horizontal,vertical,vertical,none,none,none
1c,4,100125,3,11,139,21,F,NA,variable,homogeneous,6,present,0.58613395690918,1,vertical,vertical,1,0.729408373832703,red,3,4,1038.06300875679,508.616172865948,839.890788585259,348.13947314824,760.109211414741,851.86052685176,998.172220171528,760.476699717708,1038.06300875679,508.616172865948,839.890788585259,348.13947314824,601.827779828472,439.523300282291,561.936991243214,691.383827134052,0,0,4,0,0,0,horizontal,horizontal,vertical,horizontal,vertical,horizontal
1c,4,100125,3,12,140,21,F,NA,variable,homogeneous,5,present,0.612984895706177,1,horizontal,horizontal,1,0.952931928634644,green,4,2,800,345,949.885239334581,806.299333565612,650.114760665419,806.299333565612,949.885239334581,806.299333565612,1042.51941165526,521.200666434388,800,345,557.480588344736,521.200666434388,0,0,0,0,0,4,0,NaN,vertical,horizontal,vertical,horizontal,vertical,none
1c,4,100125,3,13,141,21,F,NA,variable,homogeneous,3,present,0.541779041290283,1,horizontal,horizontal,1,0.823523554801941,green,3,2,579.163522034968,727.5,800,345,1020.83647796503,727.5,800,345,579.163522034968,727.5,0,0,0,0,0,0,0,0,4,NaN,NaN,NaN,vertical,horizontal,horizontal,none,none,none
1c,4,100125,3,14,142,21,F,NA,variable,homogeneous,6,absent,1.01075100898743,1,horizontal,horizontal,1,0.882345542907715,green,1,NaN,911.784642431215,829.192481806288,NaN,NaN,911.784642431215,829.192481806288,1054.37883281626,617.787900804752,942.594190385041,388.595418998464,688.215357568785,370.807518193712,545.621167183745,582.212099195248,657.405809614959,811.404581001536,4,0,0,0,0,0,horizontal,horizontal,horizontal,vertical,vertical,horizontal
1c,4,100125,3,15,143,21,F,NA,variable,homogeneous,6,present,0.770137071609497,1,horizontal,horizontal,1,0.752937169075012,green,2,5,1055,600,545,600,927.5,820.836477965032,1055,600,927.5,379.163522034968,672.5,379.163522034968,545,600,672.5,820.836477965032,0,4,0,0,0,0,vertical,horizontal,vertical,horizontal,vertical,horizontal
1c,4,100125,3,16,144,21,F,NA,variable,homogeneous,3,absent,0.539051055908203,1,horizontal,horizontal,1,0.670586385726929,green,3,NaN,552.574589799621,661.690083377915,NaN,NaN,977.137884467044,783.431649086356,870.287525733335,354.878267535729,552.574589799621,661.690083377915,0,0,0,0,0,0,0,0,4,NaN,NaN,NaN,vertical,vertical,horizontal,none,none,none
1c,4,100125,3,17,145,21,F,NA,variable,homogeneous,4,present,0.799372911453247,1,vertical,vertical,1,0.670586385726929,green,1,2,725.445215295702,843.857712770574,1043.85771277057,674.554784704298,725.445215295702,843.857712770574,1043.85771277057,674.554784704298,874.554784704298,356.142287229426,556.142287229426,525.445215295702,0,0,0,0,4,0,0,0,NaN,NaN,vertical,vertical,horizontal,vertical,none,none
1c,4,100125,3,18,146,21,F,NA,variable,homogeneous,4,present,0.939571142196655,1,vertical,vertical,1,0.999989519119263,green,3,1,755.719714694933,348.874022981887,844.280285305067,851.125977018113,844.280285305067,851.125977018113,1051.12597701811,555.719714694933,755.719714694933,348.874022981887,548.874022981887,644.280285305067,0,0,0,0,0,0,4,0,NaN,NaN,vertical,vertical,vertical,horizontal,none,none
1c,4,100125,3,19,147,21,F,NA,variable,homogeneous,3,absent,0.564275026321411,1,vertical,vertical,1,0.682350783348084,red,1,NaN,992.450942956807,767.295052392579,NaN,NaN,992.450942956807,767.295052392579,848.656293821019,349.685068220846,558.892763222174,683.019879386575,0,0,0,0,0,0,4,0,0,NaN,NaN,NaN,vertical,horizontal,vertical,none,none,none
1c,4,100125,3,20,148,21,F,NA,variable,homogeneous,5,present,1.17635011672974,1,vertical,vertical,1,0.635293192863464,green,3,2,1000.94274216971,443.006323791957,1011.40458100154,742.594190385041,729.712474266665,845.121732464271,1011.40458100154,742.594190385041,1000.94274216971,443.006323791957,712.784863451954,360.378381699593,545.155339110131,608.899371659138,0,0,0,0,4,0,0,NaN,horizontal,vertical,vertical,horizontal,vertical,none
1c,4,100125,3,21,149,21,F,NA,variable,homogeneous,3,absent,0.584933996200562,1,vertical,vertical,1,1.03528271198273,green,2,NaN,1048.46436652023,657.362518857686,NaN,NaN,626.090418184063,786.495193912888,1048.46436652023,657.362518857686,725.445215295702,356.142287229426,0,0,0,0,0,0,0,4,0,NaN,NaN,NaN,vertical,vertical,vertical,none,none,none
1c,4,100125,3,22,150,21,F,NA,variable,homogeneous,3,absent,0.740958213806152,1,horizontal,horizontal,1,0.823523554801941,green,3,NaN,795.549636358493,345.03883773512,NaN,NaN,581.422338320961,731.334709102064,1023.02802532055,723.626453162816,795.549636358493,345.03883773512,0,0,0,0,0,0,0,0,4,NaN,NaN,NaN,horizontal,vertical,horizontal,none,none,none
1c,4,100125,3,23,151,21,F,NA,variable,homogeneous,3,absent,0.636508941650391,1,horizontal,horizontal,1,0.823523554801941,red,2,NaN,865.998856501143,353.688914296288,NaN,NaN,980.31222920257,780.31222920257,865.998856501143,353.688914296288,553.688914296288,665.998856501143,0,0,0,0,0,0,0,4,0,NaN,NaN,NaN,vertical,horizontal,vertical,none,none,none
1c,4,100125,3,24,152,21,F,NA,variable,homogeneous,5,absent,0.559775829315186,1,horizontal,horizontal,1,1.0941047000885,green,3,NaN,935.129412379467,383.747735480111,NaN,NaN,817.787900804752,854.378832816255,1047.42541020038,661.690083377915,935.129412379467,383.747735480111,636.089159529932,404.658667004661,563.568117085469,695.524681321058,0,0,0,0,4,0,0,NaN,vertical,vertical,horizontal,vertical,vertical,none
1c,4,100125,3,25,153,21,F,NA,variable,homogeneous,6,present,1.36782503128052,0,horizontal,vertical,1,0.658821988105774,red,3,1,1050.31493177915,551.343706178981,716.980120613425,841.107236777826,716.980120613425,841.107236777826,967.295052392579,792.450942956807,1050.31493177915,551.343706178981,883.019879386575,358.892763222174,632.704947607421,407.549057043193,549.685068220846,648.656293821019,0,0,4,0,0,0,vertical,vertical,horizontal,horizontal,vertical,vertical
1c,4,100125,3,26,154,21,F,NA,variable,homogeneous,4,present,0.800535202026367,1,horizontal,horizontal,1,1.04704710960388,red,4,2,610.498069503264,429.371695378491,989.501930496736,770.628304621509,629.371695378491,789.501930496736,989.501930496736,770.628304621509,970.628304621509,410.498069503264,610.498069503264,429.371695378491,0,0,0,0,0,0,0,4,NaN,NaN,vertical,vertical,vertical,horizontal,none,none
1c,4,100125,3,27,155,21,F,NA,variable,homogeneous,4,present,0.781390905380249,1,vertical,vertical,1,0.823523554801941,red,1,2,696.282156015671,832.954091698863,1032.95409169886,703.717843984329,696.282156015671,832.954091698863,1032.95409169886,703.717843984329,903.717843984329,367.045908301137,567.045908301137,496.282156015671,0,0,0,0,4,0,0,0,NaN,NaN,vertical,horizontal,horizontal,horizontal,none,none
1c,4,100125,3,28,156,21,F,NA,variable,homogeneous,5,absent,0.967108964920044,1,horizontal,horizontal,1,0.705879578590393,red,5,NaN,547.481642470899,564.510859255183,NaN,NaN,688.215357568785,829.192481806288,983.431649086356,777.137884467044,1025.15163617903,480.284751489598,755.719714694933,348.874022981887,547.481642470899,564.510859255183,0,0,0,0,0,0,4,NaN,vertical,vertical,horizontal,vertical,horizontal,none
1c,4,100125,3,29,157,21,F,NA,variable,homogeneous,6,present,0.802454948425293,1,horizontal,horizontal,1,0.788230361938477,green,2,6,1016.25226451989,735.129412379467,574.848363820974,719.715248510402,791.100628340862,854.844660889869,1016.25226451989,735.129412379467,1025.15163617903,480.284751489598,808.899371659138,345.155339110131,583.747735480111,464.870587620533,574.848363820974,719.715248510402,0,4,0,0,0,0,vertical,horizontal,vertical,horizontal,vertical,vertical
1c,4,100125,3,30,158,21,F,NA,variable,homogeneous,6,absent,1.05553197860718,1,vertical,vertical,1,1.04704710960388,red,5,NaN,672.5,379.163522034968,NaN,NaN,672.5,820.836477965032,927.5,820.836477965032,1055,600,927.5,379.163522034968,672.5,379.163522034968,545,600,0,0,0,0,4,0,vertical,horizontal,horizontal,horizontal,vertical,horizontal
1c,4,100125,3,31,159,21,F,NA,variable,homogeneous,6,absent,1.0140860080719,1,vertical,vertical,1,1.04704710960388,green,4,NaN,891.383827134052,361.936991243214,NaN,NaN,708.616172865948,838.063008756786,960.476699717708,798.172220171528,1051.86052685176,560.109211414741,891.383827134052,361.936991243214,639.523300282292,401.827779828472,548.13947314824,639.890788585259,0,0,0,4,0,0,horizontal,horizontal,vertical,vertical,vertical,horizontal
1c,4,100125,3,32,160,21,F,NA,variable,homogeneous,5,present,0.68121600151062,1,vertical,vertical,1,0.941167531013489,red,1,5,795.549636358493,854.96116226488,556.142287229426,674.554784704298,795.549636358493,854.96116226488,1041.10723677783,683.019879386575,953.462830903772,396.34794493794,653.738008730483,391.116228706307,556.142287229426,674.554784704298,0,0,4,0,0,0,0,NaN,vertical,vertical,vertical,vertical,horizontal,none
1c,4,100125,3,33,161,21,F,NA,variable,homogeneous,4,present,0.632269144058228,1,horizontal,horizontal,1,0.858816747665405,red,2,4,1050.31493177915,648.656293821019,549.685068220846,551.343706178981,751.343706178981,850.314931779154,1050.31493177915,648.656293821019,848.656293821019,349.685068220846,549.685068220846,551.343706178981,0,0,0,0,0,4,0,0,NaN,NaN,vertical,horizontal,horizontal,horizontal,none,none
1c,4,100125,3,34,162,21,F,NA,variable,homogeneous,5,absent,0.774927139282227,1,vertical,vertical,1,0.694115180969238,red,2,NaN,1054.65053136242,586.654331158049,NaN,NaN,891.383827134052,838.063008756786,1054.65053136242,586.654331158049,865.998856501143,353.688914296288,586.139005173917,461.117046071168,601.827779828472,760.476699717708,0,0,0,4,0,0,0,NaN,vertical,vertical,horizontal,vertical,vertical,none
1c,4,100125,3,35,163,21,F,NA,variable,homogeneous,5,present,0.570042848587036,1,horizontal,horizontal,1,0.788230361938477,red,5,3,553.688914296288,665.998856501143,960.476699717708,401.827779828472,786.654331158049,854.650531362416,1038.06300875679,691.383827134052,960.476699717708,401.827779828472,661.117046071168,386.139005173917,553.688914296288,665.998856501143,0,0,0,0,0,0,4,NaN,horizontal,vertical,vertical,horizontal,horizontal,none
1c,4,100125,3,36,164,21,F,NA,variable,homogeneous,5,absent,0.932265996932983,1,horizontal,horizontal,1,0.917638735771179,red,4,NaN,696.282156015671,367.045908301137,NaN,NaN,746.982518841471,849.42763818712,1020.83647796503,727.5,989.501930496736,429.371695378491,696.282156015671,367.045908301137,546.39691668109,626.654758133252,0,0,0,0,0,4,0,NaN,vertical,horizontal,horizontal,horizontal,horizontal,none
1c,4,100125,3,37,165,21,F,NA,variable,homogeneous,4,absent,0.681129932403564,1,vertical,vertical,1,0.717643976211548,green,3,NaN,970.628304621509,410.498069503264,NaN,NaN,629.371695378491,789.501930496736,989.501930496736,770.628304621509,970.628304621509,410.498069503264,610.498069503264,429.371695378491,0,0,0,0,0,0,4,0,NaN,NaN,horizontal,horizontal,vertical,horizontal,none,none
1c,4,100125,3,38,166,21,F,NA,variable,homogeneous,6,present,0.795497894287109,1,vertical,vertical,1,0.823523554801941,green,1,5,915.767577433584,827.206663668034,545.349468637584,586.654331158049,915.767577433584,827.206663668034,1054.65053136242,613.345668841951,938.882953928832,386.139005173917,684.232422566416,372.793336331966,545.349468637584,586.654331158049,661.117046071168,813.860994826083,4,0,0,0,0,0,vertical,horizontal,vertical,vertical,horizontal,vertical
1c,4,100125,3,39,167,21,F,NA,variable,homogeneous,4,present,0.677613973617554,0,vertical,horizontal,1,0.694115180969238,red,1,3,622.862115532956,783.431649086356,977.137884467044,416.568350913644,622.862115532956,783.431649086356,983.431649086356,777.137884467044,977.137884467044,416.568350913644,616.568350913644,422.862115532956,0,0,0,0,4,0,0,0,NaN,NaN,vertical,horizontal,horizontal,horizontal,none,none
1c,4,100125,3,40,168,21,F,NA,variable,homogeneous,5,present,NaN,0,vertical,none,0,0.941167531013489,red,1,2,813.345668841951,854.650531362416,1046.31108570371,665.998856501143,813.345668841951,854.650531362416,1046.31108570371,665.998856501143,938.882953928832,386.139005173917,639.523300282292,401.827779828472,561.936991243214,691.383827134052,0,0,4,0,0,0,0,NaN,vertical,vertical,vertical,vertical,horizontal,none
1c,4,100125,3,41,169,21,F,NA,variable,homogeneous,6,absent,1.6348991394043,1,vertical,vertical,1,0.62352879524231,green,5,NaN,626.090418184063,413.504806087112,NaN,NaN,725.445215295702,843.857712770574,973.909581815937,786.495193912888,1048.46436652023,542.637481142314,874.554784704298,356.142287229426,626.090418184063,413.504806087112,551.535633479765,657.362518857686,0,0,0,0,4,0,horizontal,vertical,vertical,vertical,vertical,horizontal
1c,4,100125,3,42,170,21,F,NA,variable,homogeneous,6,present,0.790678024291992,1,horizontal,horizontal,1,0.941167531013489,red,4,3,729.712474266665,354.878267535729,977.137884467044,416.568350913644,870.287525733335,845.121732464271,1047.42541020038,661.690083377915,977.137884467044,416.568350913644,729.712474266665,354.878267535729,552.574589799621,538.309916622085,622.862115532956,783.431649086356,0,0,0,4,0,0,horizontal,vertical,vertical,horizontal,vertical,vertical
1c,4,100125,3,43,171,21,F,NA,variable,homogeneous,3,present,0.62362003326416,1,horizontal,horizontal,1,0.647057590484619,green,3,2,629.371695378491,410.498069503264,1049.42763818712,546.982518841471,721.200666434388,842.519411655264,1049.42763818712,546.982518841471,629.371695378491,410.498069503264,0,0,0,0,0,0,0,0,4,NaN,NaN,NaN,horizontal,vertical,horizontal,none,none,none
1c,4,100125,3,44,172,21,F,NA,variable,homogeneous,3,absent,0.640580177307129,1,vertical,vertical,1,0.611764397621155,red,1,NaN,980.31222920257,780.31222920257,NaN,NaN,980.31222920257,780.31222920257,865.998856501143,353.688914296288,553.688914296288,665.998856501143,0,0,0,0,0,0,4,0,0,NaN,NaN,NaN,vertical,vertical,horizontal,none,none,none
1c,4,100125,3,45,173,21,F,NA,variable,homogeneous,4,present,NaN,0,horizontal,none,0,1.05881150722504,green,2,4,1000.94274216971,756.993676208043,599.057257830286,443.006323791957,643.006323791957,800.942742169714,1000.94274216971,756.993676208043,956.993676208043,399.057257830286,599.057257830286,443.006323791957,0,0,0,0,0,4,0,0,NaN,NaN,vertical,horizontal,vertical,horizontal,none,none
1c,4,100125,3,46,174,21,F,NA,variable,homogeneous,3,present,0.812425136566162,1,horizontal,horizontal,1,0.670586385726929,red,1,3,998.172220171528,760.476699717708,561.936991243214,691.383827134052,998.172220171528,760.476699717708,839.890788585259,348.13947314824,561.936991243214,691.383827134052,0,0,0,0,0,0,4,0,0,NaN,NaN,NaN,horizontal,horizontal,vertical,none,none,none
1c,4,100125,3,47,175,21,F,NA,variable,homogeneous,4,present,1.19161415100098,1,horizontal,horizontal,1,0.941167531013489,green,1,4,883.019879386575,841.107236777826,558.892763222174,683.019879386575,883.019879386575,841.107236777826,1041.10723677783,516.980120613425,716.980120613425,358.892763222174,558.892763222174,683.019879386575,0,0,0,0,4,0,0,0,NaN,NaN,horizontal,horizontal,horizontal,vertical,none,none
1c,4,100125,3,48,176,21,F,NA,variable,homogeneous,3,present,0.643614053726196,1,vertical,vertical,1,1.01175391674042,green,3,1,773.345241866748,346.39691668109,593.700666434388,749.885239334581,593.700666434388,749.885239334581,1032.95409169886,703.717843984329,773.345241866748,346.39691668109,0,0,0,0,0,0,0,0,4,NaN,NaN,NaN,horizontal,vertical,vertical,none,none,none
1c,4,100125,3,49,177,21,F,NA,variable,homogeneous,4,absent,0.62714409828186,1,vertical,vertical,1,0.905874338150024,green,3,NaN,626.090418184063,413.504806087112,NaN,NaN,973.909581815937,786.495193912888,986.495193912888,426.090418184063,626.090418184063,413.504806087112,613.504806087112,773.909581815937,0,0,0,0,0,0,4,0,NaN,NaN,vertical,vertical,vertical,horizontal,none,none
1c,4,100125,3,50,178,21,F,NA,variable,homogeneous,4,absent,0.577924013137817,1,vertical,vertical,1,1.0941047000885,red,2,NaN,1032.95409169886,496.282156015671,NaN,NaN,903.717843984329,832.954091698863,1032.95409169886,496.282156015671,696.282156015671,367.045908301137,567.045908301137,703.717843984329,0,0,0,0,0,4,0,0,NaN,NaN,horizontal,vertical,horizontal,horizontal,none,none
1c,4,100125,3,51,179,21,F,NA,variable,homogeneous,5,absent,0.772166967391968,0,vertical,horizontal,1,0.929403133392334,red,1,NaN,696.282156015671,832.954091698863,NaN,NaN,696.282156015671,832.954091698863,989.501930496736,770.628304621509,1020.83647796503,472.5,746.982518841471,350.57236181288,546.39691668109,573.345241866748,0,0,4,0,0,0,0,NaN,vertical,horizontal,vertical,vertical,horizontal,none
1c,4,100125,3,52,180,21,F,NA,variable,homogeneous,3,absent,0.60998797416687,1,vertical,vertical,1,0.729408373832703,green,3,NaN,668.665290897936,381.422338320961,NaN,NaN,676.373546837184,823.028025320546,1054.96116226488,595.549636358493,668.665290897936,381.422338320961,0,0,0,0,0,0,0,0,4,NaN,NaN,NaN,horizontal,vertical,vertical,none,none,none
1c,4,100125,3,53,181,21,F,NA,variable,homogeneous,6,present,0.962733030319214,1,vertical,vertical,1,0.811759157180786,red,5,3,554.878267535729,529.712474266665,983.431649086356,422.862115532956,861.690083377915,847.425410200379,1045.12173246427,670.287525733335,983.431649086356,422.862115532956,738.309916622085,352.574589799621,554.878267535729,529.712474266665,616.568350913644,777.137884467044,0,0,0,0,4,0,vertical,vertical,vertical,horizontal,vertical,horizontal
1c,4,100125,3,54,182,21,F,NA,variable,homogeneous,4,absent,0.924211978912354,1,horizontal,horizontal,1,0.705879578590393,green,1,NaN,826.654758133252,853.60308331891,NaN,NaN,826.654758133252,853.60308331891,1053.60308331891,573.345241866748,773.345241866748,346.39691668109,546.39691668109,626.654758133252,0,0,0,0,4,0,0,0,NaN,NaN,horizontal,horizontal,vertical,horizontal,none,none
1c,4,100125,3,55,183,21,F,NA,variable,homogeneous,5,present,0.645481824874878,1,horizontal,horizontal,1,0.741172771453857,green,3,1,804.450363641507,345.03883773512,946.261991269517,808.883771293693,946.261991269517,808.883771293693,1043.85771277057,525.445215295702,804.450363641507,345.03883773512,558.892763222174,516.980120613425,646.537169096228,803.65205506206,0,0,0,0,4,0,0,NaN,vertical,horizontal,horizontal,vertical,vertical,none
1c,4,100125,3,56,184,21,F,NA,variable,homogeneous,5,absent,0.58443808555603,1,horizontal,horizontal,1,1.0941047000885,green,4,NaN,668.665290897936,381.422338320961,NaN,NaN,777.775285599347,854.029648013395,1034.72873763037,699.636437764765,967.295052392579,407.549057043193,668.665290897936,381.422338320961,551.535633479765,657.362518857686,0,0,0,0,0,4,0,NaN,vertical,vertical,horizontal,horizontal,vertical,none
1c,4,100125,3,57,185,21,F,NA,variable,homogeneous,5,absent,1.04189610481262,1,vertical,vertical,1,1.08234030246735,green,4,NaN,558.892763222174,516.980120613425,NaN,NaN,946.261991269517,808.883771293693,1043.85771277057,525.445215295702,804.450363641507,345.03883773512,558.892763222174,516.980120613425,646.537169096228,803.65205506206,0,0,0,0,0,4,0,NaN,horizontal,vertical,horizontal,vertical,horizontal,none
1c,4,100125,3,58,186,21,F,NA,variable,homogeneous,6,absent,0.799556016921997,1,horizontal,horizontal,1,0.635293192863464,green,3,NaN,1050.31493177915,551.343706178981,NaN,NaN,716.980120613425,841.107236777826,967.295052392579,792.450942956807,1050.31493177915,551.343706178981,883.019879386575,358.892763222174,632.704947607421,407.549057043193,549.685068220846,648.656293821019,0,0,4,0,0,0,horizontal,horizontal,horizontal,vertical,horizontal,horizontal
1c,4,100125,3,59,187,21,F,NA,variable,homogeneous,5,present,1.11600494384766,1,vertical,vertical,1,0.999989519119263,green,1,3,768.923317431687,853.099268668537,973.909581815937,413.504806087112,768.923317431687,853.099268668537,1031.10848569435,707.767656743878,973.909581815937,413.504806087112,676.373546837184,376.971974679454,549.685068220846,648.656293821019,0,0,4,0,0,0,0,NaN,vertical,horizontal,horizontal,vertical,horizontal,none
1c,4,100125,3,60,188,21,F,NA,variable,homogeneous,6,absent,0.529932022094727,1,horizontal,horizontal,1,0.988225121498108,red,4,NaN,923.626453162816,376.971974679454,NaN,NaN,676.373546837184,823.028025320546,931.334709102064,818.577661679039,1054.96116226488,595.549636358493,923.626453162816,376.971974679454,668.665290897936,381.422338320961,545.03883773512,604.450363641507,0,0,0,4,0,0,vertical,vertical,horizontal,horizontal,vertical,vertical
1c,4,100125,3,61,189,21,F,NA,variable,homogeneous,3,present,0.72967791557312,1,vertical,vertical,1,0.858816747665405,red,2,3,949.885239334581,393.700666434388,546.39691668109,573.345241866748,903.717843984329,832.954091698863,949.885239334581,393.700666434388,546.39691668109,573.345241866748,0,0,0,0,0,0,0,4,0,NaN,NaN,NaN,horizontal,vertical,vertical,none,none,none
1c,4,100125,3,62,190,21,F,NA,variable,homogeneous,3,absent,0.599251985549927,1,horizontal,horizontal,1,0.717643976211548,red,3,NaN,558.892763222174,516.980120613425,NaN,NaN,848.656293821019,850.314931779154,992.450942956807,432.704947607421,558.892763222174,516.980120613425,0,0,0,0,0,0,0,0,4,NaN,NaN,NaN,horizontal,vertical,horizontal,none,none,none
1c,4,100125,3,63,191,21,F,NA,variable,homogeneous,6,present,1.03549599647522,1,vertical,vertical,1,0.999989519119263,green,6,4,556.142287229426,674.554784704298,857.362518857686,351.535633479765,742.637481142314,848.464366520235,986.495193912888,773.909581815937,1043.85771277057,525.445215295702,857.362518857686,351.535633479765,613.504806087112,426.090418184063,556.142287229426,674.554784704298,0,0,0,0,0,4,vertical,vertical,horizontal,vertical,vertical,vertical
1c,4,100125,3,64,192,21,F,NA,variable,homogeneous,6,absent,0.837883949279785,1,vertical,vertical,1,1.07057590484619,red,4,NaN,755.719714694933,348.874022981887,NaN,NaN,844.280285305067,851.125977018113,1039.62161830041,687.215136548046,995.341332995339,436.089159529932,755.719714694933,348.874022981887,560.378381699593,512.784863451954,604.658667004661,763.910840470068,0,0,0,4,0,0,vertical,horizontal,vertical,vertical,horizontal,horizontal
1c,4,100125,4,1,193,21,F,NA,variable,homogeneous,6,present,1.71613192558289,1,vertical,vertical,1,0.729408373832703,green,1,6,676.373546837184,823.028025320546,545.03883773512,604.450363641507,676.373546837184,823.028025320546,931.334709102064,818.577661679039,1054.96116226488,595.549636358493,923.626453162816,376.971974679454,668.665290897936,381.422338320961,545.03883773512,604.450363641507,4,0,0,0,0,0,vertical,vertical,horizontal,horizontal,vertical,horizontal
1c,4,100125,4,2,194,21,F,NA,variable,homogeneous,5,absent,0.63886284828186,1,horizontal,horizontal,1,0.62352879524231,green,3,NaN,915.767577433584,372.793336331966,NaN,NaN,839.890788585259,851.86052685176,1051.86052685176,639.890788585259,915.767577433584,372.793336331966,619.68777079743,419.68777079743,572.793336331966,715.767577433584,0,0,0,0,4,0,0,NaN,vertical,vertical,horizontal,vertical,horizontal,none
1c,4,100125,4,3,195,21,F,NA,variable,homogeneous,4,absent,0.681326866149902,1,vertical,vertical,1,0.670586385726929,green,3,NaN,853.017481158529,350.57236181288,NaN,NaN,746.982518841471,849.42763818712,1049.42763818712,653.017481158529,853.017481158529,350.57236181288,550.57236181288,546.982518841471,0,0,0,0,0,0,4,0,NaN,NaN,horizontal,horizontal,vertical,vertical,none,none
1c,4,100125,4,4,196,21,F,NA,variable,homogeneous,4,present,0.642735958099365,1,vertical,vertical,1,0.976460723876953,red,4,3,613.504806087112,773.909581815937,626.090418184063,413.504806087112,973.909581815937,786.495193912888,986.495193912888,426.090418184063,626.090418184063,413.504806087112,613.504806087112,773.909581815937,0,0,0,0,0,0,0,4,NaN,NaN,horizontal,vertical,vertical,vertical,none,none
1c,4,100125,4,5,197,21,F,NA,variable,homogeneous,4,present,0.860205888748169,1,horizontal,horizontal,1,0.62352879524231,red,4,2,545.155339110131,591.100628340862,1054.84466088987,608.899371659138,791.100628340862,854.844660889869,1054.84466088987,608.899371659138,808.899371659138,345.155339110131,545.155339110131,591.100628340862,0,0,0,0,0,0,0,4,NaN,NaN,vertical,vertical,horizontal,horizontal,none,none
1c,4,100125,4,6,198,21,F,NA,variable,homogeneous,6,present,0.561467885971069,1,vertical,vertical,1,1.01175391674042,red,5,1,583.747735480111,464.870587620533,791.100628340862,854.844660889869,791.100628340862,854.844660889869,1016.25226451989,735.129412379467,1025.15163617903,480.284751489598,808.899371659138,345.155339110131,583.747735480111,464.870587620533,574.848363820974,719.715248510402,0,0,0,0,4,0,horizontal,horizontal,vertical,horizontal,vertical,horizontal
1c,4,100125,4,7,199,21,F,NA,variable,homogeneous,4,present,0.707698106765747,1,horizontal,horizontal,1,0.729408373832703,green,4,2,601.827779828472,760.476699717708,998.172220171528,439.523300282291,960.476699717708,798.172220171528,998.172220171528,439.523300282291,639.523300282292,401.827779828472,601.827779828472,760.476699717708,0,0,0,0,0,0,0,4,NaN,NaN,vertical,horizontal,horizontal,horizontal,none,none
1c,4,100125,4,8,200,21,F,NA,variable,homogeneous,4,present,0.590183973312378,1,vertical,vertical,1,0.999989519119263,red,2,3,1027.20666366803,715.767577433584,915.767577433584,372.793336331966,684.232422566416,827.206663668034,1027.20666366803,715.767577433584,915.767577433584,372.793336331966,572.793336331966,484.232422566416,0,0,0,0,0,4,0,0,NaN,NaN,horizontal,vertical,horizontal,vertical,none,none
1c,4,100125,4,9,201,21,F,NA,variable,homogeneous,5,absent,0.780304908752441,1,horizontal,horizontal,1,0.905874338150024,red,2,NaN,1054.65053136242,586.654331158049,NaN,NaN,891.383827134052,838.063008756786,1054.65053136242,586.654331158049,865.998856501143,353.688914296288,586.139005173917,461.117046071168,601.827779828472,760.476699717708,0,0,0,4,0,0,0,NaN,vertical,horizontal,horizontal,vertical,vertical,none
1c,4,100125,4,10,202,21,F,NA,variable,homogeneous,4,present,0.815611124038696,1,horizontal,horizontal,1,0.776465964317322,red,2,3,998.172220171528,760.476699717708,960.476699717708,401.827779828472,639.523300282292,798.172220171528,998.172220171528,760.476699717708,960.476699717708,401.827779828472,601.827779828472,439.523300282291,0,0,0,0,0,4,0,0,NaN,NaN,vertical,horizontal,vertical,vertical,none,none
1c,4,100125,4,11,203,21,F,NA,variable,homogeneous,6,absent,0.978944778442383,1,vertical,vertical,1,0.741172771453857,red,1,NaN,716.980120613425,841.107236777826,NaN,NaN,716.980120613425,841.107236777826,967.295052392579,792.450942956807,1050.31493177915,551.343706178981,883.019879386575,358.892763222174,632.704947607421,407.549057043193,549.685068220846,648.656293821019,4,0,0,0,0,0,vertical,vertical,horizontal,horizontal,horizontal,horizontal
1c,4,100125,4,12,204,21,F,NA,variable,homogeneous,6,present,1.07893991470337,1,horizontal,horizontal,1,1.02351831436157,green,3,6,1036.43188291453,504.475318678942,563.568117085469,695.524681321058,764.510859255183,852.518357529101,1000.94274216971,756.993676208043,1036.43188291453,504.475318678942,835.489140744817,347.4816424709,599.057257830286,443.006323791957,563.568117085469,695.524681321058,0,0,4,0,0,0,horizontal,horizontal,horizontal,horizontal,horizontal,horizontal
1c,4,100125,4,13,205,21,F,NA,variable,homogeneous,5,absent,0.857637166976929,1,horizontal,horizontal,1,0.835287952423096,red,2,NaN,1050.31493177915,551.343706178981,NaN,NaN,923.626453162816,823.028025320546,1050.31493177915,551.343706178981,831.076682568313,346.900731331463,568.891514305654,492.232343256122,626.090418184063,786.495193912888,0,0,0,4,0,0,0,NaN,horizontal,horizontal,horizontal,vertical,horizontal,none
1c,4,100125,4,14,206,21,F,NA,variable,homogeneous,6,absent,0.870253086090088,1,vertical,vertical,1,0.764701566696167,red,1,NaN,716.980120613425,841.107236777826,NaN,NaN,716.980120613425,841.107236777826,967.295052392579,792.450942956807,1050.31493177915,551.343706178981,883.019879386575,358.892763222174,632.704947607421,407.549057043193,549.685068220846,648.656293821019,4,0,0,0,0,0,vertical,vertical,vertical,horizontal,vertical,vertical
1c,4,100125,4,15,207,21,F,NA,variable,homogeneous,4,absent,0.786581993103027,1,horizontal,horizontal,1,0.929403133392334,red,4,NaN,545.970351986605,622.224714400653,NaN,NaN,822.224714400653,854.029648013395,1054.0296480134,577.775285599347,777.775285599347,345.970351986605,545.970351986605,622.224714400653,0,0,0,0,0,0,0,4,NaN,NaN,vertical,vertical,horizontal,horizontal,none,none
1c,4,100125,4,16,208,21,F,NA,variable,homogeneous,6,absent,0.583168983459473,1,vertical,vertical,1,0.647057590484619,green,2,NaN,986.495193912888,773.909581815937,NaN,NaN,742.637481142314,848.464366520235,986.495193912888,773.909581815937,1043.85771277057,525.445215295702,857.362518857686,351.535633479765,613.504806087112,426.090418184063,556.142287229426,674.554784704298,0,4,0,0,0,0,horizontal,vertical,vertical,horizontal,vertical,vertical
1c,4,100125,4,17,209,21,F,NA,variable,homogeneous,3,absent,0.713258028030396,0,horizontal,vertical,1,0.705879578590393,green,1,NaN,1008.88377129369,746.261991269517,NaN,NaN,1008.88377129369,746.261991269517,822.224714400653,345.970351986605,568.891514305654,707.767656743878,0,0,0,0,0,0,4,0,0,NaN,NaN,NaN,horizontal,horizontal,horizontal,none,none,none
1c,4,100125,4,18,210,21,F,NA,variable,homogeneous,4,absent,0.689752817153931,1,horizontal,horizontal,1,0.905874338150024,red,2,NaN,980.31222920257,780.31222920257,NaN,NaN,619.68777079743,780.31222920257,980.31222920257,780.31222920257,980.31222920257,419.68777079743,619.68777079743,419.68777079743,0,0,0,0,0,4,0,0,NaN,NaN,vertical,horizontal,horizontal,vertical,none,none
1c,4,100125,4,19,211,21,F,NA,variable,homogeneous,3,present,0.603689908981323,1,horizontal,horizontal,1,0.799994759559631,red,2,3,949.885239334581,393.700666434388,546.39691668109,573.345241866748,903.717843984329,832.954091698863,949.885239334581,393.700666434388,546.39691668109,573.345241866748,0,0,0,0,0,0,0,4,0,NaN,NaN,NaN,vertical,horizontal,vertical,none,none,none
1c,4,100125,4,20,212,21,F,NA,variable,homogeneous,4,absent,0.842255115509033,1,vertical,vertical,1,0.717643976211548,green,2,NaN,1054.84466088987,591.100628340862,NaN,NaN,808.899371659138,854.844660889869,1054.84466088987,591.100628340862,791.100628340862,345.155339110131,545.155339110131,608.899371659138,0,0,0,0,0,4,0,0,NaN,NaN,horizontal,vertical,vertical,horizontal,none,none
1c,4,100125,4,21,213,21,F,NA,variable,homogeneous,5,absent,0.706314086914062,1,vertical,vertical,1,0.952931928634644,red,5,NaN,565.271262369628,699.636437764765,NaN,NaN,822.224714400653,854.029648013395,1048.46436652023,657.362518857686,931.334709102064,381.422338320961,632.704947607421,407.549057043193,565.271262369628,699.636437764765,0,0,0,0,0,0,4,NaN,vertical,vertical,vertical,vertical,vertical,none
1c,4,100125,4,22,214,21,F,NA,variable,homogeneous,5,absent,0.878534078598022,1,vertical,vertical,1,0.694115180969238,green,1,NaN,704.475318678942,836.431882914531,NaN,NaN,704.475318678942,836.431882914531,995.341332995339,763.910840470068,1016.25226451989,464.870587620533,738.309916622085,352.574589799621,545.621167183745,582.212099195248,0,0,4,0,0,0,0,NaN,vertical,horizontal,vertical,horizontal,horizontal,none
1c,4,100125,4,23,215,21,F,NA,variable,homogeneous,5,absent,0.652684926986694,1,vertical,vertical,1,1.02351831436157,red,5,NaN,551.535633479765,657.362518857686,NaN,NaN,777.775285599347,854.029648013395,1034.72873763037,699.636437764765,967.295052392579,407.549057043193,668.665290897936,381.422338320961,551.535633479765,657.362518857686,0,0,0,0,0,0,4,NaN,vertical,vertical,vertical,horizontal,vertical,none
1c,4,100125,4,24,216,21,F,NA,variable,homogeneous,4,absent,0.811213970184326,1,horizontal,horizontal,1,1.07057590484619,green,2,NaN,1006.29933356561,450.114760665419,NaN,NaN,949.885239334581,806.299333565612,1006.29933356561,450.114760665419,650.114760665419,393.700666434388,593.700666434388,749.885239334581,0,0,0,0,0,4,0,0,NaN,NaN,horizontal,horizontal,vertical,vertical,none,none
1c,4,100125,4,25,217,21,F,NA,variable,homogeneous,3,absent,0.664483070373535,1,vertical,vertical,1,0.635293192863464,red,3,NaN,610.498069503264,429.371695378491,NaN,NaN,746.982518841471,849.42763818712,1042.51941165526,521.200666434388,610.498069503264,429.371695378491,0,0,0,0,0,0,0,0,4,NaN,NaN,NaN,vertical,horizontal,vertical,none,none,none
1c,4,100125,4,26,218,21,F,NA,variable,homogeneous,3,present,1.47483205795288,1,horizontal,horizontal,1,0.647057590484619,green,2,3,1053.60308331891,626.654758133252,696.282156015671,367.045908301137,650.114760665419,806.299333565612,1053.60308331891,626.654758133252,696.282156015671,367.045908301137,0,0,0,0,0,0,0,4,0,NaN,NaN,NaN,horizontal,horizontal,vertical,none,none,none
1c,4,100125,4,27,219,21,F,NA,variable,homogeneous,5,present,1.27854204177856,1,horizontal,horizontal,1,0.905874338150024,red,2,5,1047.42541020038,538.309916622085,636.089159529932,795.341332995339,935.129412379467,816.252264519889,1047.42541020038,538.309916622085,817.787900804752,345.621167183745,563.568117085469,504.475318678942,636.089159529932,795.341332995339,0,0,0,4,0,0,0,NaN,horizontal,horizontal,horizontal,horizontal,vertical,none
1c,4,100125,4,28,220,21,F,NA,variable,homogeneous,6,absent,0.819397926330566,1,vertical,vertical,1,0.952931928634644,green,6,NaN,591.116228706307,746.261991269517,NaN,NaN,822.224714400653,854.029648013395,1031.10848569435,707.767656743878,1008.88377129369,453.738008730483,777.775285599347,345.970351986605,568.891514305654,492.232343256122,591.116228706307,746.261991269517,0,0,0,0,0,4,vertical,vertical,horizontal,vertical,horizontal,vertical
1c,4,100125,4,29,221,21,F,NA,variable,homogeneous,4,present,0.916100025177002,1,vertical,vertical,1,0.823523554801941,green,2,3,1050.31493177915,648.656293821019,848.656293821019,349.685068220846,751.343706178981,850.314931779154,1050.31493177915,648.656293821019,848.656293821019,349.685068220846,549.685068220846,551.343706178981,0,0,0,0,0,4,0,0,NaN,NaN,horizontal,vertical,vertical,vertical,none,none
1c,4,100125,4,30,222,21,F,NA,variable,homogeneous,5,present,0.776597023010254,1,horizontal,horizontal,1,1.08234030246735,green,1,3,653.738008730483,808.883771293693,1041.10723677783,516.980120613425,653.738008730483,808.883771293693,953.462830903772,803.65205506206,1041.10723677783,516.980120613425,795.549636358493,345.03883773512,556.142287229426,525.445215295702,0,0,4,0,0,0,0,NaN,horizontal,horizontal,horizontal,horizontal,vertical,none
1c,4,100125,4,31,223,21,F,NA,variable,homogeneous,6,absent,0.726770877838135,1,horizontal,horizontal,1,0.717643976211548,red,2,NaN,1048.46436652023,657.362518857686,NaN,NaN,874.554784704298,843.857712770574,1048.46436652023,657.362518857686,973.909581815937,413.504806087112,725.445215295702,356.142287229426,551.535633479765,542.637481142314,626.090418184063,786.495193912888,0,4,0,0,0,0,vertical,horizontal,horizontal,vertical,horizontal,horizontal
1c,4,100125,4,32,224,21,F,NA,variable,homogeneous,5,present,1.15988492965698,1,horizontal,horizontal,1,0.917638735771179,green,3,4,844.280285305067,348.874022981887,574.848363820974,480.284751489598,911.784642431215,829.192481806288,1052.5183575291,564.510859255183,844.280285305067,348.874022981887,574.848363820974,480.284751489598,616.568350913644,777.137884467044,0,0,0,0,4,0,0,NaN,vertical,horizontal,horizontal,horizontal,vertical,none
1c,4,100125,4,33,225,21,F,NA,variable,homogeneous,3,present,0.799838066101074,1,vertical,vertical,1,0.635293192863464,red,1,3,949.885239334581,806.299333565612,546.39691668109,626.654758133252,949.885239334581,806.299333565612,903.717843984329,367.045908301137,546.39691668109,626.654758133252,0,0,0,0,0,0,4,0,0,NaN,NaN,NaN,vertical,vertical,horizontal,none,none,none
1c,4,100125,4,34,226,21,F,NA,variable,homogeneous,4,present,1.05205488204956,1,vertical,vertical,1,0.999989519119263,green,1,3,874.554784704298,843.857712770574,725.445215295702,356.142287229426,874.554784704298,843.857712770574,1043.85771277057,525.445215295702,725.445215295702,356.142287229426,556.142287229426,674.554784704298,0,0,0,0,4,0,0,0,NaN,NaN,vertical,vertical,horizontal,horizontal,none,none
1c,4,100125,4,35,227,21,F,NA,variable,homogeneous,5,absent,0.926576137542725,1,vertical,vertical,1,0.858816747665405,green,3,NaN,953.462830903772,396.34794493794,NaN,NaN,795.549636358493,854.96116226488,1041.10723677783,683.019879386575,953.462830903772,396.34794493794,653.738008730483,391.116228706307,556.142287229426,674.554784704298,0,0,0,0,4,0,0,NaN,horizontal,horizontal,vertical,vertical,vertical,none
1c,4,100125,4,36,228,21,F,NA,variable,homogeneous,5,present,0.957545042037964,1,vertical,vertical,1,1.02351831436157,green,5,2,572.793336331966,715.767577433584,1051.86052685176,639.890788585259,839.890788585259,851.86052685176,1051.86052685176,639.890788585259,915.767577433584,372.793336331966,619.68777079743,419.68777079743,572.793336331966,715.767577433584,0,0,0,0,0,0,4,NaN,horizontal,horizontal,vertical,horizontal,vertical,none
1c,4,100125,4,37,229,21,F,NA,variable,homogeneous,6,absent,0.850904941558838,1,horizontal,horizontal,1,1.0941047000885,green,2,NaN,942.594190385041,811.404581001536,NaN,NaN,688.215357568785,829.192481806288,942.594190385041,811.404581001536,1054.37883281626,582.212099195248,911.784642431215,370.807518193712,657.405809614959,388.595418998464,545.621167183745,617.787900804752,0,4,0,0,0,0,horizontal,horizontal,horizontal,horizontal,vertical,vertical
1c,4,100125,4,38,230,21,F,NA,variable,homogeneous,6,present,0.95293402671814,1,vertical,vertical,1,0.847052350044251,green,4,1,742.637481142314,351.535633479765,857.362518857686,848.464366520235,857.362518857686,848.464366520235,1043.85771277057,674.554784704298,986.495193912888,426.090418184063,742.637481142314,351.535633479765,556.142287229426,525.445215295702,613.504806087112,773.909581815937,0,0,0,4,0,0,vertical,vertical,vertical,vertical,horizontal,horizontal
1c,4,100125,4,39,231,21,F,NA,variable,homogeneous,5,present,0.732424020767212,1,vertical,vertical,1,0.6,green,1,5,688.215357568785,829.192481806288,547.481642470899,564.510859255183,688.215357568785,829.192481806288,983.431649086356,777.137884467044,1025.15163617903,480.284751489598,755.719714694933,348.874022981887,547.481642470899,564.510859255183,0,0,4,0,0,0,0,NaN,vertical,vertical,vertical,horizontal,horizontal,none
1c,4,100125,4,40,232,21,F,NA,variable,homogeneous,6,absent,0.624513149261475,1,horizontal,horizontal,1,0.87058114528656,green,4,NaN,919.715248510402,374.848363820974,NaN,NaN,680.284751489598,825.151636179026,935.129412379467,816.252264519889,1054.84466088987,591.100628340862,919.715248510402,374.848363820974,664.870587620533,383.747735480111,545.155339110131,608.899371659138,0,0,0,4,0,0,vertical,horizontal,horizontal,horizontal,horizontal,horizontal
1c,4,100125,4,41,233,21,F,NA,variable,homogeneous,3,absent,1.2475049495697,1,horizontal,horizontal,1,0.917638735771179,red,1,NaN,878.799333565612,842.519411655264,NaN,NaN,878.799333565612,842.519411655264,970.628304621509,410.498069503264,550.57236181288,546.982518841471,0,0,0,0,0,0,4,0,0,NaN,NaN,NaN,horizontal,horizontal,vertical,none,none,none
1c,4,100125,4,42,234,21,F,NA,variable,homogeneous,3,present,0.855956077575684,1,vertical,vertical,1,0.764701566696167,red,1,2,839.890788585259,851.86052685176,998.172220171528,439.523300282291,839.890788585259,851.86052685176,998.172220171528,439.523300282291,561.936991243214,508.616172865948,0,0,0,0,0,0,4,0,0,NaN,NaN,NaN,vertical,vertical,horizontal,none,none,none
1c,4,100125,4,43,235,21,F,NA,variable,homogeneous,5,present,0.61060094833374,1,horizontal,horizontal,1,0.858816747665405,red,2,5,1054.0296480134,622.224714400653,581.422338320961,731.334709102064,857.362518857686,848.464366520235,1054.0296480134,622.224714400653,899.636437764765,365.271262369628,607.549057043193,432.704947607421,581.422338320961,731.334709102064,0,0,0,4,0,0,0,NaN,horizontal,horizontal,horizontal,horizontal,horizontal,none
1c,4,100125,4,44,236,21,F,NA,variable,homogeneous,4,absent,0.690481901168823,1,vertical,vertical,1,0.976460723876953,red,4,NaN,557.480588344736,678.799333565612,NaN,NaN,878.799333565612,842.519411655264,1042.51941165526,521.200666434388,721.200666434388,357.480588344736,557.480588344736,678.799333565612,0,0,0,0,0,0,0,4,NaN,NaN,vertical,horizontal,horizontal,vertical,none,none
1c,4,100125,4,45,237,21,F,NA,variable,homogeneous,3,absent,0.969897985458374,1,vertical,vertical,1,0.882345542907715,red,2,NaN,949.885239334581,393.700666434388,NaN,NaN,903.717843984329,832.954091698863,949.885239334581,393.700666434388,546.39691668109,573.345241866748,0,0,0,0,0,0,0,4,0,NaN,NaN,NaN,horizontal,vertical,vertical,none,none,none
1c,4,100125,4,46,238,21,F,NA,variable,homogeneous,3,absent,0.614690065383911,1,vertical,vertical,1,1.05881150722504,green,1,NaN,751.343706178981,850.314931779154,NaN,NaN,751.343706178981,850.314931779154,1041.10723677783,516.980120613425,607.549057043193,432.704947607421,0,0,0,0,0,0,4,0,0,NaN,NaN,NaN,vertical,horizontal,horizontal,none,none,none
1c,4,100125,4,47,239,21,F,NA,variable,homogeneous,3,present,0.928263187408447,1,vertical,vertical,1,0.647057590484619,green,3,2,586.139005173917,461.117046071168,1027.20666366803,484.232422566416,786.654331158049,854.650531362416,1027.20666366803,484.232422566416,586.139005173917,461.117046071168,0,0,0,0,0,0,0,0,4,NaN,NaN,NaN,horizontal,vertical,vertical,none,none,none
1c,4,100125,4,48,240,21,F,NA,variable,homogeneous,4,absent,1.07992005348206,1,horizontal,horizontal,1,0.635293192863464,green,4,NaN,560.378381699593,687.215136548046,NaN,NaN,887.215136548046,839.621618300407,1039.62161830041,512.784863451954,712.784863451954,360.378381699593,560.378381699593,687.215136548046,0,0,0,0,0,0,0,4,NaN,NaN,vertical,vertical,vertical,horizontal,none,none
1c,4,100125,4,49,241,21,F,NA,variable,homogeneous,3,absent,0.588042020797729,1,vertical,vertical,1,0.929403133392334,green,3,NaN,545.621167183745,617.787900804752,NaN,NaN,942.594190385041,811.404581001536,911.784642431215,370.807518193712,545.621167183745,617.787900804752,0,0,0,0,0,0,0,0,4,NaN,NaN,NaN,horizontal,horizontal,vertical,none,none,none
1c,4,100125,4,50,242,21,F,NA,variable,homogeneous,5,absent,1.00431799888611,1,horizontal,horizontal,1,0.6,green,4,NaN,664.870587620533,383.747735480111,NaN,NaN,782.212099195248,854.378832816255,1036.43188291453,695.524681321058,963.910840470068,404.658667004661,664.870587620533,383.747735480111,552.574589799621,661.690083377915,0,0,0,0,0,4,0,NaN,vertical,vertical,vertical,horizontal,vertical,none
1c,4,100125,4,51,243,21,F,NA,variable,homogeneous,6,absent,0.912780046463013,1,horizontal,horizontal,1,0.823523554801941,red,3,NaN,927.5,379.163522034968,NaN,NaN,927.5,820.836477965032,1055,600,927.5,379.163522034968,672.5,379.163522034968,545,600,672.5,820.836477965032,0,0,4,0,0,0,horizontal,horizontal,horizontal,vertical,vertical,horizontal
1c,4,100125,4,52,244,21,F,NA,variable,homogeneous,4,absent,0.691826105117798,1,vertical,vertical,1,0.823523554801941,red,3,NaN,668.665290897936,381.422338320961,NaN,NaN,931.334709102064,818.577661679039,1018.57766167904,468.665290897936,668.665290897936,381.422338320961,581.422338320961,731.334709102064,0,0,0,0,0,0,4,0,NaN,NaN,vertical,horizontal,vertical,vertical,none,none
1c,4,100125,4,53,245,21,F,NA,variable,homogeneous,5,present,0.850413084030151,1,vertical,vertical,1,1.03528271198273,red,3,4,804.450363641507,345.03883773512,558.892763222174,516.980120613425,946.261991269517,808.883771293693,1043.85771277057,525.445215295702,804.450363641507,345.03883773512,558.892763222174,516.980120613425,646.537169096228,803.65205506206,0,0,0,0,4,0,0,NaN,vertical,vertical,vertical,vertical,vertical,none
1c,4,100125,4,54,246,21,F,NA,variable,homogeneous,3,present,0.54040789604187,1,horizontal,horizontal,1,1.03528271198273,red,2,3,870.287525733335,354.878267535729,552.574589799621,661.690083377915,977.137884467044,783.431649086356,870.287525733335,354.878267535729,552.574589799621,661.690083377915,0,0,0,0,0,0,0,4,0,NaN,NaN,NaN,horizontal,horizontal,horizontal,none,none,none
