experiment,subject,uniqueID,block,trial,trial_cumulative,age,gender,color_cond_blocking,color_history,shape_type,set_size,distractor,rt,acc,target_orient,response_key,response_made,iti,target_color,target_item,distractor_item,target_X,target_Y,distractor_X,distractor_Y,item1_X,item1_Y,item2_X,item2_Y,item3_X,item3_Y,item4_X,item4_Y,item5_X,item5_Y,item6_X,item6_Y,item1_shape,item2_shape,item3_shape,item4_shape,item5_shape,item6_shape,item1_line,item2_line,item3_line,item4_line,item5_line,item6_line
1c,5,100131,1,1,1,20,F,NA,variable,homogeneous,3,present,1.82530307769775,1,horizontal,horizontal,1,1.05880239486694,red,2,1,1011.40458100154,457.40580961496,817.787900804752,854.378832816255,817.787900804752,854.378832816255,1011.40458100154,457.40580961496,570.807518193712,488.215357568785,0,0,0,0,0,0,0,4,0,NaN,NaN,NaN,horizontal,horizontal,horizontal,none,none,none
1c,5,100131,1,2,2,20,F,NA,variable,homogeneous,3,absent,0.985687017440796,1,horizontal,horizontal,1,0.811754951477051,red,2,NaN,927.5,379.163522034968,NaN,NaN,927.5,820.836477965032,927.5,379.163522034968,545,600,0,0,0,0,0,0,0,4,0,NaN,NaN,NaN,vertical,horizontal,horizontal,none,none,none
1c,5,100131,1,3,3,20,F,NA,variable,homogeneous,6,absent,0.826372861862183,1,horizontal,horizontal,1,1.05880239486694,green,1,NaN,848.656293821019,850.314931779154,NaN,NaN,848.656293821019,850.314931779154,1041.10723677783,683.019879386575,992.450942956807,432.704947607421,751.343706178981,349.685068220846,558.892763222174,516.980120613425,607.549057043193,767.295052392579,4,0,0,0,0,0,horizontal,vertical,horizontal,vertical,vertical,vertical
1c,5,100131,1,4,4,20,F,NA,variable,homogeneous,6,present,0.577260971069336,1,horizontal,horizontal,1,0.694113311767578,green,4,3,768.923317431687,346.900731331463,1003.65205506206,446.537169096228,831.076682568313,853.099268668537,1034.72873763037,699.636437764765,1003.65205506206,446.537169096228,768.923317431687,346.900731331463,565.271262369628,500.363562235235,596.34794493794,753.462830903772,0,0,0,4,0,0,horizontal,horizontal,vertical,horizontal,vertical,horizontal
1c,5,100131,1,5,5,20,F,NA,variable,homogeneous,6,present,0.641005039215088,1,horizontal,horizontal,1,1.01174573898315,green,6,3,581.422338320961,731.334709102064,1018.57766167904,468.665290897936,804.450363641507,854.96116226488,1023.02802532055,723.626453162816,1018.57766167904,468.665290897936,795.549636358493,345.03883773512,576.971974679454,476.373546837184,581.422338320961,731.334709102064,0,0,0,0,0,4,vertical,horizontal,vertical,vertical,horizontal,horizontal
1c,5,100131,1,6,6,20,F,NA,variable,homogeneous,6,absent,0.623253107070923,1,horizontal,horizontal,1,0.635292491912842,green,3,NaN,1046.31108570371,534.001143498857,NaN,NaN,734.001143498857,846.311085703712,980.31222920257,780.31222920257,1046.31108570371,534.001143498857,865.998856501143,353.688914296288,619.68777079743,419.68777079743,553.688914296288,665.998856501143,0,0,4,0,0,0,vertical,vertical,horizontal,horizontal,vertical,vertical
1c,5,100131,1,7,7,20,F,NA,variable,homogeneous,4,absent,0.605291128158569,1,horizontal,horizontal,1,0.870575771331787,green,1,NaN,960.476699717708,798.172220171528,NaN,NaN,960.476699717708,798.172220171528,998.172220171528,439.523300282291,639.523300282292,401.827779828472,601.827779828472,760.476699717708,0,0,0,0,4,0,0,0,NaN,NaN,horizontal,vertical,vertical,vertical,none,none
1c,5,100131,1,8,8,20,F,NA,variable,homogeneous,5,present,0.534265041351318,1,horizontal,horizontal,1,0.835283279418945,green,2,5,1047.42541020038,661.690083377915,563.568117085469,695.524681321058,817.787900804752,854.378832816255,1047.42541020038,661.690083377915,935.129412379467,383.747735480111,636.089159529932,404.658667004661,563.568117085469,695.524681321058,0,0,0,4,0,0,0,NaN,horizontal,horizontal,horizontal,horizontal,horizontal,none
1c,5,100131,1,9,9,20,F,NA,variable,homogeneous,5,absent,0.906110048294067,1,vertical,vertical,1,0.847047443389893,red,1,NaN,835.489140744817,852.518357529101,NaN,NaN,835.489140744817,852.518357529101,1051.12597701811,644.280285305067,919.715248510402,374.848363820974,622.862115532956,416.568350913644,570.807518193712,711.784642431215,0,0,4,0,0,0,0,NaN,vertical,horizontal,vertical,vertical,vertical,none
1c,5,100131,1,10,10,20,F,NA,variable,homogeneous,4,present,0.811935901641846,0,horizontal,vertical,1,0.776462459564209,red,2,4,1003.65205506206,446.537169096228,596.34794493794,753.462830903772,953.462830903772,803.65205506206,1003.65205506206,446.537169096228,646.537169096228,396.34794493794,596.34794493794,753.462830903772,0,0,0,0,0,4,0,0,NaN,NaN,horizontal,horizontal,horizontal,vertical,none,none
1c,5,100131,1,11,11,20,F,NA,variable,homogeneous,3,absent,1.21753597259521,1,vertical,vertical,1,0.658820819854736,green,2,NaN,1051.12597701811,644.280285305067,NaN,NaN,636.089159529932,795.341332995339,1051.12597701811,644.280285305067,712.784863451954,360.378381699593,0,0,0,0,0,0,0,4,0,NaN,NaN,NaN,horizontal,vertical,horizontal,none,none,none
1c,5,100131,1,12,12,20,F,NA,variable,homogeneous,6,present,0.756824970245361,1,horizontal,horizontal,1,0.741169967651367,red,1,2,751.343706178981,850.314931779154,992.450942956807,767.295052392579,751.343706178981,850.314931779154,992.450942956807,767.295052392579,1041.10723677783,516.980120613425,848.656293821019,349.685068220846,607.549057043193,432.704947607421,558.892763222174,683.019879386575,4,0,0,0,0,0,horizontal,horizontal,vertical,horizontal,horizontal,vertical
1c,5,100131,1,13,13,20,F,NA,variable,homogeneous,6,absent,0.540846109390259,1,horizontal,horizontal,1,1.03527406692505,red,2,NaN,983.431649086356,777.137884467044,NaN,NaN,738.309916622085,847.425410200379,983.431649086356,777.137884467044,1045.12173246427,529.712474266665,861.690083377915,352.574589799621,616.568350913644,422.862115532956,554.878267535729,670.287525733335,0,4,0,0,0,0,horizontal,horizontal,horizontal,vertical,horizontal,vertical
1c,5,100131,1,14,14,20,F,NA,variable,homogeneous,6,absent,0.571792840957642,1,horizontal,horizontal,1,0.999981575012207,red,2,NaN,927.5,820.836477965032,NaN,NaN,672.5,820.836477965032,927.5,820.836477965032,1055,600,927.5,379.163522034968,672.5,379.163522034968,545,600,0,4,0,0,0,0,vertical,horizontal,vertical,horizontal,vertical,horizontal
1c,5,100131,1,15,15,20,F,NA,variable,homogeneous,6,absent,0.863381147384644,1,vertical,vertical,1,0.98821741104126,green,5,NaN,581.422338320961,468.665290897936,NaN,NaN,795.549636358493,854.96116226488,1018.57766167904,731.334709102064,1023.02802532055,476.373546837184,804.450363641507,345.03883773512,581.422338320961,468.665290897936,576.971974679454,723.626453162816,0,0,0,0,4,0,horizontal,vertical,horizontal,vertical,vertical,vertical
1c,5,100131,1,16,16,20,F,NA,variable,homogeneous,5,absent,0.752405881881714,1,horizontal,horizontal,1,0.6,green,1,NaN,899.636437764765,834.728737630372,NaN,NaN,899.636437764765,834.728737630372,1054.0296480134,577.775285599347,857.362518857686,351.535633479765,581.422338320961,468.665290897936,607.549057043193,767.295052392579,0,0,4,0,0,0,0,NaN,horizontal,horizontal,horizontal,vertical,horizontal,none
1c,5,100131,1,17,17,20,F,NA,variable,homogeneous,3,absent,0.730782985687256,1,vertical,vertical,1,0.72940580368042,red,3,NaN,563.568117085469,695.524681321058,NaN,NaN,1000.94274216971,756.993676208043,835.489140744817,347.4816424709,563.568117085469,695.524681321058,0,0,0,0,0,0,0,0,4,NaN,NaN,NaN,horizontal,vertical,vertical,none,none,none
1c,5,100131,1,18,18,20,F,NA,variable,homogeneous,4,present,0.753279209136963,1,vertical,vertical,1,0.788226623535156,green,3,2,891.383827134052,361.936991243214,1038.06300875679,691.383827134052,708.616172865948,838.063008756786,1038.06300875679,691.383827134052,891.383827134052,361.936991243214,561.936991243214,508.616172865948,0,0,0,0,0,0,4,0,NaN,NaN,vertical,vertical,vertical,vertical,none,none
1c,5,100131,1,19,19,20,F,NA,variable,homogeneous,5,present,0.768920183181763,1,vertical,vertical,1,0.611764163970947,green,5,3,574.848363820974,719.715248510402,911.784642431215,370.807518193712,844.280285305067,851.125977018113,1052.5183575291,635.489140744817,911.784642431215,370.807518193712,616.568350913644,422.862115532956,574.848363820974,719.715248510402,0,0,0,0,0,0,4,NaN,horizontal,horizontal,horizontal,vertical,vertical,none
1c,5,100131,1,20,20,20,F,NA,variable,homogeneous,3,absent,0.691241025924683,1,horizontal,horizontal,1,0.741169967651367,red,2,NaN,986.495193912888,426.090418184063,NaN,NaN,857.362518857686,848.464366520235,986.495193912888,426.090418184063,556.142287229426,525.445215295702,0,0,0,0,0,0,0,4,0,NaN,NaN,NaN,horizontal,horizontal,horizontal,none,none,none
1c,5,100131,1,21,21,20,F,NA,variable,homogeneous,3,absent,1.80995583534241,1,vertical,vertical,1,1.03527406692505,red,2,NaN,1023.02802532055,476.373546837184,NaN,NaN,795.549636358493,854.96116226488,1023.02802532055,476.373546837184,581.422338320961,468.665290897936,0,0,0,0,0,0,0,4,0,NaN,NaN,NaN,vertical,vertical,vertical,none,none,none
1c,5,100131,1,22,22,20,F,NA,variable,homogeneous,6,present,0.810909032821655,1,vertical,vertical,1,0.835283279418945,green,6,5,567.045908301137,703.717843984329,593.700666434388,450.114760665419,773.345241866748,853.60308331891,1006.29933356561,749.885239334581,1032.95409169886,496.282156015671,826.654758133252,346.39691668109,593.700666434388,450.114760665419,567.045908301137,703.717843984329,0,0,0,0,0,4,horizontal,horizontal,horizontal,vertical,vertical,vertical
1c,5,100131,1,23,23,20,F,NA,variable,homogeneous,5,present,0.913800001144409,1,vertical,vertical,1,0.705877475738525,red,4,5,684.232422566416,372.793336331966,548.13947314824,639.890788585259,760.109211414741,851.86052685176,1027.20666366803,715.767577433584,980.31222920257,419.68777079743,684.232422566416,372.793336331966,548.13947314824,639.890788585259,0,0,0,0,0,4,0,NaN,horizontal,horizontal,vertical,vertical,horizontal,none
1c,5,100131,1,24,24,20,F,NA,variable,homogeneous,3,present,0.720602989196777,1,horizontal,horizontal,1,1.03527406692505,green,3,2,548.874022981887,555.719714694933,963.910840470068,404.658667004661,887.215136548046,839.621618300407,963.910840470068,404.658667004661,548.874022981887,555.719714694933,0,0,0,0,0,0,0,0,4,NaN,NaN,NaN,horizontal,vertical,horizontal,none,none,none
1c,5,100131,1,25,25,20,F,NA,variable,homogeneous,4,present,0.734331130981445,1,horizontal,horizontal,1,0.952924919128418,green,1,2,708.616172865948,838.063008756786,1038.06300875679,691.383827134052,708.616172865948,838.063008756786,1038.06300875679,691.383827134052,891.383827134052,361.936991243214,561.936991243214,508.616172865948,0,0,0,0,4,0,0,0,NaN,NaN,horizontal,vertical,horizontal,horizontal,none,none
1c,5,100131,1,26,26,20,F,NA,variable,homogeneous,6,absent,0.669909000396729,1,vertical,vertical,1,0.635292491912842,red,3,NaN,1016.25226451989,464.870587620533,NaN,NaN,808.899371659138,854.844660889869,1025.15163617903,719.715248510402,1016.25226451989,464.870587620533,791.100628340862,345.155339110131,574.848363820974,480.284751489598,583.747735480111,735.129412379467,0,0,4,0,0,0,vertical,horizontal,vertical,horizontal,horizontal,vertical
1c,5,100131,1,27,27,20,F,NA,variable,homogeneous,3,present,0.900131940841675,1,horizontal,horizontal,1,1.0235099029541,red,1,3,956.993676208043,800.942742169714,547.481642470899,635.489140744817,956.993676208043,800.942742169714,895.524681321058,363.568117085469,547.481642470899,635.489140744817,0,0,0,0,0,0,4,0,0,NaN,NaN,NaN,horizontal,vertical,vertical,none,none,none
1c,5,100131,1,28,28,20,F,NA,variable,homogeneous,5,present,0.757415056228638,1,horizontal,horizontal,1,0.964689083099365,red,2,4,967.295052392579,792.450942956807,777.775285599347,345.970351986605,668.665290897936,818.577661679039,967.295052392579,792.450942956807,1034.72873763037,500.363562235235,777.775285599347,345.970351986605,551.535633479765,542.637481142314,0,0,0,4,0,0,0,NaN,horizontal,horizontal,vertical,vertical,vertical,none
1c,5,100131,1,29,29,20,F,NA,variable,homogeneous,6,absent,0.749206781387329,1,vertical,vertical,1,0.811754951477051,green,1,NaN,746.982518841471,849.42763818712,NaN,NaN,746.982518841471,849.42763818712,989.501930496736,770.628304621509,1042.51941165526,521.200666434388,853.017481158529,350.57236181288,610.498069503264,429.371695378491,557.480588344736,678.799333565612,4,0,0,0,0,0,vertical,horizontal,horizontal,vertical,vertical,vertical
1c,5,100131,1,30,30,20,F,NA,variable,homogeneous,5,absent,0.696852922439575,1,horizontal,horizontal,1,0.835283279418945,green,2,NaN,1031.10848569435,707.767656743878,NaN,NaN,768.923317431687,853.099268668537,1031.10848569435,707.767656743878,973.909581815937,413.504806087112,676.373546837184,376.971974679454,549.685068220846,648.656293821019,0,0,0,4,0,0,0,NaN,horizontal,horizontal,horizontal,horizontal,vertical,none
1c,5,100131,1,31,31,20,F,NA,variable,homogeneous,6,present,0.768799066543579,1,vertical,vertical,1,0.694113311767578,green,4,3,746.982518841471,350.57236181288,989.501930496736,429.371695378491,853.017481158529,849.42763818712,1042.51941165526,678.799333565612,989.501930496736,429.371695378491,746.982518841471,350.57236181288,557.480588344736,521.200666434388,610.498069503264,770.628304621509,0,0,0,4,0,0,vertical,vertical,horizontal,vertical,vertical,vertical
1c,5,100131,1,32,32,20,F,NA,variable,homogeneous,6,present,0.72881293296814,1,vertical,vertical,1,1.0235099029541,red,6,4,545.155339110131,608.899371659138,919.715248510402,374.848363820974,680.284751489598,825.151636179026,935.129412379467,816.252264519889,1054.84466088987,591.100628340862,919.715248510402,374.848363820974,664.870587620533,383.747735480111,545.155339110131,608.899371659138,0,0,0,0,0,4,vertical,vertical,vertical,horizontal,horizontal,vertical
1c,5,100131,1,33,33,20,F,NA,variable,homogeneous,6,present,0.771782875061035,1,horizontal,horizontal,1,0.799990787506104,red,1,2,729.712474266665,845.121732464271,977.137884467044,783.431649086356,729.712474266665,845.121732464271,977.137884467044,783.431649086356,1047.42541020038,538.309916622085,870.287525733335,354.878267535729,622.862115532956,416.568350913644,552.574589799621,661.690083377915,4,0,0,0,0,0,horizontal,vertical,horizontal,horizontal,vertical,vertical
1c,5,100131,1,34,34,20,F,NA,variable,homogeneous,3,present,0.752068996429443,1,vertical,vertical,1,1.03527406692505,green,2,3,1034.72873763037,699.636437764765,768.923317431687,346.900731331463,596.34794493794,753.462830903772,1034.72873763037,699.636437764765,768.923317431687,346.900731331463,0,0,0,0,0,0,0,4,0,NaN,NaN,NaN,horizontal,vertical,vertical,none,none,none
1c,5,100131,1,35,35,20,F,NA,variable,homogeneous,5,present,0.84381103515625,1,horizontal,horizontal,1,0.823519115447998,red,3,1,891.383827134052,361.936991243214,865.998856501143,846.311085703712,865.998856501143,846.311085703712,1054.65053136242,613.345668841951,891.383827134052,361.936991243214,601.827779828472,439.523300282291,586.139005173917,738.882953928832,0,0,0,0,4,0,0,NaN,horizontal,vertical,horizontal,vertical,horizontal,none
1c,5,100131,1,36,36,20,F,NA,variable,homogeneous,3,present,1.11393404006958,1,vertical,vertical,1,0.658820819854736,red,1,3,738.309916622085,847.425410200379,616.568350913644,422.862115532956,738.309916622085,847.425410200379,1045.12173246427,529.712474266665,616.568350913644,422.862115532956,0,0,0,0,0,0,4,0,0,NaN,NaN,NaN,vertical,horizontal,horizontal,none,none,none
1c,5,100131,1,37,37,20,F,NA,variable,homogeneous,3,present,0.674118041992188,1,vertical,vertical,1,0.682349147796631,red,2,3,927.5,379.163522034968,545,600,927.5,820.836477965032,927.5,379.163522034968,545,600,0,0,0,0,0,0,0,4,0,NaN,NaN,NaN,horizontal,vertical,vertical,none,none,none
1c,5,100131,1,38,38,20,F,NA,variable,homogeneous,4,present,0.661611080169678,1,vertical,vertical,1,0.882339935302734,red,3,4,664.870587620533,383.747735480111,583.747735480111,735.129412379467,935.129412379467,816.252264519889,1016.25226451989,464.870587620533,664.870587620533,383.747735480111,583.747735480111,735.129412379467,0,0,0,0,0,0,4,0,NaN,NaN,vertical,horizontal,vertical,vertical,none,none
1c,5,100131,1,39,39,20,F,NA,variable,homogeneous,4,absent,0.672781944274902,1,vertical,vertical,1,0.694113311767578,green,4,NaN,570.807518193712,711.784642431215,NaN,NaN,911.784642431215,829.192481806288,1029.19248180629,488.215357568785,688.215357568785,370.807518193712,570.807518193712,711.784642431215,0,0,0,0,0,0,0,4,NaN,NaN,horizontal,vertical,horizontal,vertical,none,none
1c,5,100131,1,40,40,20,F,NA,variable,homogeneous,6,present,0.675577878952026,1,vertical,vertical,1,1.05880239486694,red,2,4,1045.12173246427,670.287525733335,738.309916622085,352.574589799621,861.690083377915,847.425410200379,1045.12173246427,670.287525733335,983.431649086356,422.862115532956,738.309916622085,352.574589799621,554.878267535729,529.712474266665,616.568350913644,777.137884467044,0,4,0,0,0,0,vertical,vertical,vertical,horizontal,vertical,horizontal
1c,5,100131,1,41,41,20,F,NA,variable,homogeneous,5,absent,0.526934862136841,1,vertical,vertical,1,0.682349147796631,red,3,NaN,949.885239334581,393.700666434388,NaN,NaN,800,855,1042.51941165526,678.799333565612,949.885239334581,393.700666434388,650.114760665419,393.700666434388,557.480588344736,678.799333565612,0,0,0,0,4,0,0,NaN,vertical,vertical,vertical,horizontal,vertical,none
1c,5,100131,1,42,42,20,F,NA,variable,homogeneous,3,absent,0.560066938400269,1,horizontal,horizontal,1,0.717641639709473,green,3,NaN,657.405809614959,388.595418998464,NaN,NaN,688.215357568785,829.192481806288,1054.37883281626,582.212099195248,657.405809614959,388.595418998464,0,0,0,0,0,0,0,0,4,NaN,NaN,NaN,horizontal,vertical,horizontal,none,none,none
1c,5,100131,1,43,43,20,F,NA,variable,homogeneous,4,absent,0.498644828796387,1,horizontal,horizontal,1,0.776462459564209,red,3,NaN,844.280285305067,348.874022981887,NaN,NaN,755.719714694933,851.125977018113,1051.12597701811,644.280285305067,844.280285305067,348.874022981887,548.874022981887,555.719714694933,0,0,0,0,0,0,4,0,NaN,NaN,horizontal,vertical,horizontal,vertical,none,none
1c,5,100131,1,44,44,20,F,NA,variable,homogeneous,4,absent,0.530896902084351,1,horizontal,horizontal,1,0.694113311767578,red,3,NaN,967.295052392579,407.549057043193,NaN,NaN,632.704947607421,792.450942956807,992.450942956807,767.295052392579,967.295052392579,407.549057043193,607.549057043193,432.704947607421,0,0,0,0,0,0,4,0,NaN,NaN,vertical,horizontal,horizontal,horizontal,none,none
1c,5,100131,1,45,45,20,F,NA,variable,homogeneous,5,present,0.689443826675415,1,vertical,vertical,1,0.788226623535156,green,5,1,574.848363820974,719.715248510402,844.280285305067,851.125977018113,844.280285305067,851.125977018113,1052.5183575291,635.489140744817,911.784642431215,370.807518193712,616.568350913644,422.862115532956,574.848363820974,719.715248510402,0,0,0,0,0,0,4,NaN,horizontal,horizontal,horizontal,vertical,vertical,none
1c,5,100131,1,46,46,20,F,NA,variable,homogeneous,6,absent,0.589295148849487,0,vertical,horizontal,1,0.894104099273682,red,5,NaN,636.089159529932,404.658667004661,NaN,NaN,712.784863451954,839.621618300407,963.910840470068,795.341332995339,1051.12597701811,555.719714694933,887.215136548046,360.378381699593,636.089159529932,404.658667004661,548.874022981887,644.280285305067,0,0,0,0,4,0,vertical,horizontal,vertical,vertical,vertical,horizontal
1c,5,100131,1,47,47,20,F,NA,variable,homogeneous,4,present,0.717883110046387,1,vertical,vertical,1,0.647056655883789,red,1,3,891.383827134052,838.063008756786,708.616172865948,361.936991243214,891.383827134052,838.063008756786,1038.06300875679,508.616172865948,708.616172865948,361.936991243214,561.936991243214,691.383827134052,0,0,0,0,4,0,0,0,NaN,NaN,vertical,vertical,horizontal,horizontal,none,none
1c,5,100131,1,48,48,20,F,NA,variable,homogeneous,5,present,0.755482912063599,1,horizontal,horizontal,1,0.929396591186523,green,5,1,576.971974679454,723.626453162816,848.656293821019,850.314931779154,848.656293821019,850.314931779154,1053.09926866854,631.076682568313,907.767656743878,368.891514305654,613.504806087112,426.090418184063,576.971974679454,723.626453162816,0,0,0,0,0,0,4,NaN,horizontal,vertical,vertical,horizontal,horizontal,none
1c,5,100131,1,49,49,20,F,NA,variable,homogeneous,4,present,0.816818952560425,1,horizontal,horizontal,1,1.09409488677979,green,2,1,1000.94274216971,756.993676208043,643.006323791957,800.942742169714,643.006323791957,800.942742169714,1000.94274216971,756.993676208043,956.993676208043,399.057257830286,599.057257830286,443.006323791957,0,0,0,0,0,4,0,0,NaN,NaN,vertical,horizontal,horizontal,vertical,none,none
1c,5,100131,1,50,50,20,F,NA,variable,homogeneous,3,absent,0.685935974121094,1,vertical,vertical,1,0.635292491912842,green,1,NaN,927.5,820.836477965032,NaN,NaN,927.5,820.836477965032,927.5,379.163522034968,545,600,0,0,0,0,0,0,4,0,0,NaN,NaN,NaN,vertical,vertical,vertical,none,none,none
1c,5,100131,1,51,51,20,F,NA,variable,homogeneous,3,absent,0.751415014266968,1,horizontal,horizontal,1,0.776462459564209,green,1,NaN,963.910840470068,795.341332995339,NaN,NaN,963.910840470068,795.341332995339,887.215136548046,360.378381699593,548.874022981887,644.280285305067,0,0,0,0,0,0,4,0,0,NaN,NaN,NaN,horizontal,horizontal,horizontal,none,none,none
1c,5,100131,1,52,52,20,F,NA,variable,homogeneous,4,absent,0.697165966033936,1,vertical,vertical,1,0.741169967651367,green,2,NaN,1050.31493177915,551.343706178981,NaN,NaN,848.656293821019,850.314931779154,1050.31493177915,551.343706178981,751.343706178981,349.685068220846,549.685068220846,648.656293821019,0,0,0,0,0,4,0,0,NaN,NaN,vertical,vertical,vertical,horizontal,none,none
1c,5,100131,1,53,53,20,F,NA,variable,homogeneous,5,absent,0.728811979293823,1,vertical,vertical,1,1.07056655883789,green,4,NaN,565.271262369628,500.363562235235,NaN,NaN,931.334709102064,818.577661679039,1048.46436652023,542.637481142314,822.224714400653,345.970351986605,565.271262369628,500.363562235235,632.704947607421,792.450942956807,0,0,0,0,0,4,0,NaN,vertical,horizontal,vertical,vertical,horizontal,none
1c,5,100131,1,54,54,20,F,NA,variable,homogeneous,3,present,0.701647996902466,1,horizontal,horizontal,1,0.694113311767578,green,3,2,570.807518193712,711.784642431215,817.787900804752,345.621167183745,1011.40458100154,742.594190385041,817.787900804752,345.621167183745,570.807518193712,711.784642431215,0,0,0,0,0,0,0,0,4,NaN,NaN,NaN,vertical,horizontal,horizontal,none,none,none
1c,5,100131,1,55,55,20,F,NA,variable,homogeneous,4,present,0.740302085876465,1,horizontal,horizontal,1,1.047038230896,red,1,2,874.554784704298,843.857712770574,1043.85771277057,525.445215295702,874.554784704298,843.857712770574,1043.85771277057,525.445215295702,725.445215295702,356.142287229426,556.142287229426,674.554784704298,0,0,0,0,4,0,0,0,NaN,NaN,horizontal,horizontal,vertical,horizontal,none,none
1c,5,100131,1,56,56,20,F,NA,variable,homogeneous,5,absent,0.613682985305786,1,horizontal,horizontal,1,0.894104099273682,red,5,NaN,545.621167183745,617.787900804752,NaN,NaN,738.309916622085,847.425410200379,1016.25226451989,735.129412379467,995.341332995339,436.089159529932,704.475318678942,363.568117085469,545.621167183745,617.787900804752,0,0,0,0,0,0,4,NaN,horizontal,vertical,vertical,horizontal,horizontal,none
1c,5,100131,1,57,57,20,F,NA,variable,homogeneous,4,absent,0.607030868530273,1,horizontal,horizontal,1,0.647056655883789,green,4,NaN,574.848363820974,719.715248510402,NaN,NaN,919.715248510402,825.151636179026,1025.15163617903,480.284751489598,680.284751489598,374.848363820974,574.848363820974,719.715248510402,0,0,0,0,0,0,0,4,NaN,NaN,vertical,vertical,vertical,horizontal,none,none
1c,5,100131,1,58,58,20,F,NA,variable,homogeneous,4,absent,0.652052164077759,1,vertical,vertical,1,0.847047443389893,red,2,NaN,1047.42541020038,538.309916622085,NaN,NaN,861.690083377915,847.425410200379,1047.42541020038,538.309916622085,738.309916622085,352.574589799621,552.574589799621,661.690083377915,0,0,0,0,0,4,0,0,NaN,NaN,vertical,vertical,horizontal,vertical,none,none
1c,5,100131,1,59,59,20,F,NA,variable,homogeneous,5,absent,0.606234073638916,1,vertical,vertical,1,0.635292491912842,green,5,NaN,583.747735480111,735.129412379467,NaN,NaN,861.690083377915,847.425410200379,1054.37883281626,617.787900804752,895.524681321058,363.568117085469,604.658667004661,436.089159529932,583.747735480111,735.129412379467,0,0,0,0,0,0,4,NaN,vertical,horizontal,vertical,vertical,vertical,none
1c,5,100131,1,60,60,20,F,NA,variable,homogeneous,4,absent,0.593909025192261,1,vertical,vertical,1,0.776462459564209,red,2,NaN,1020.83647796503,472.5,NaN,NaN,927.5,820.836477965032,1020.83647796503,472.5,672.5,379.163522034968,579.163522034968,727.5,0,0,0,0,0,4,0,0,NaN,NaN,horizontal,vertical,horizontal,horizontal,none,none
1c,5,100131,1,61,61,20,F,NA,variable,homogeneous,5,absent,0.79731297492981,1,horizontal,horizontal,1,0.764698295593262,red,4,NaN,576.971974679454,476.373546837184,NaN,NaN,907.767656743878,831.108485694346,1053.09926866854,568.923317431687,848.656293821019,349.685068220846,576.971974679454,476.373546837184,613.504806087112,773.909581815937,0,0,0,0,0,4,0,NaN,vertical,vertical,horizontal,horizontal,horizontal,none
1c,5,100131,1,62,62,20,F,NA,variable,homogeneous,5,present,0.947118997573853,1,vertical,vertical,1,0.682349147796631,red,4,1,782.212099195248,345.621167183745,664.870587620533,816.252264519889,664.870587620533,816.252264519889,963.910840470068,795.341332995339,1036.43188291453,504.475318678942,782.212099195248,345.621167183745,552.574589799621,538.309916622085,0,0,0,0,0,4,0,NaN,vertical,vertical,horizontal,vertical,horizontal,none
1c,5,100131,1,63,63,20,F,NA,variable,homogeneous,4,present,0.955163955688477,1,vertical,vertical,1,0.847047443389893,green,3,2,795.549636358493,345.03883773512,1054.96116226488,595.549636358493,804.450363641507,854.96116226488,1054.96116226488,595.549636358493,795.549636358493,345.03883773512,545.03883773512,604.450363641507,0,0,0,0,0,0,4,0,NaN,NaN,horizontal,vertical,vertical,horizontal,none,none
1c,5,100131,1,64,64,20,F,NA,variable,homogeneous,3,present,1.61577200889587,1,vertical,vertical,1,0.870575771331787,green,1,2,887.215136548046,839.621618300407,963.910840470068,404.658667004661,887.215136548046,839.621618300407,963.910840470068,404.658667004661,548.874022981887,555.719714694933,0,0,0,0,0,0,4,0,0,NaN,NaN,NaN,vertical,vertical,horizontal,none,none,none
1c,5,100131,2,1,65,20,F,NA,variable,homogeneous,6,absent,1.01324605941772,1,vertical,vertical,1,0.929396591186523,red,4,NaN,870.287525733335,354.878267535729,NaN,NaN,729.712474266665,845.121732464271,977.137884467044,783.431649086356,1047.42541020038,538.309916622085,870.287525733335,354.878267535729,622.862115532956,416.568350913644,552.574589799621,661.690083377915,0,0,0,4,0,0,horizontal,vertical,horizontal,vertical,horizontal,horizontal
1c,5,100131,2,2,66,20,F,NA,variable,homogeneous,5,absent,0.632736921310425,1,horizontal,horizontal,1,0.941160755157471,red,3,NaN,817.787900804752,345.621167183745,NaN,NaN,935.129412379467,816.252264519889,1047.42541020038,538.309916622085,817.787900804752,345.621167183745,563.568117085469,504.475318678942,636.089159529932,795.341332995339,0,0,0,0,4,0,0,NaN,vertical,vertical,horizontal,vertical,vertical,none
1c,5,100131,2,3,67,20,F,NA,variable,homogeneous,3,present,0.659791946411133,1,vertical,vertical,1,0.72940580368042,green,2,3,923.626453162816,376.971974679454,545.03883773512,604.450363641507,931.334709102064,818.577661679039,923.626453162816,376.971974679454,545.03883773512,604.450363641507,0,0,0,0,0,0,0,4,0,NaN,NaN,NaN,vertical,vertical,horizontal,none,none,none
1c,5,100131,2,4,68,20,F,NA,variable,homogeneous,4,absent,0.606200933456421,1,horizontal,horizontal,1,1.047038230896,green,3,NaN,729.712474266665,354.878267535729,NaN,NaN,870.287525733335,845.121732464271,1045.12173246427,529.712474266665,729.712474266665,354.878267535729,554.878267535729,670.287525733335,0,0,0,0,0,0,4,0,NaN,NaN,horizontal,vertical,horizontal,horizontal,none,none
1c,5,100131,2,5,69,20,F,NA,variable,homogeneous,3,present,0.868742942810059,1,vertical,vertical,1,0.694113311767578,green,1,2,861.690083377915,847.425410200379,983.431649086356,422.862115532956,861.690083377915,847.425410200379,983.431649086356,422.862115532956,554.878267535729,529.712474266665,0,0,0,0,0,0,4,0,0,NaN,NaN,NaN,vertical,horizontal,vertical,none,none,none
1c,5,100131,2,6,70,20,F,NA,variable,homogeneous,3,absent,0.703915119171143,1,horizontal,horizontal,1,0.894104099273682,green,1,NaN,804.450363641507,854.96116226488,NaN,NaN,804.450363641507,854.96116226488,1018.57766167904,468.665290897936,576.971974679454,476.373546837184,0,0,0,0,0,0,4,0,0,NaN,NaN,NaN,horizontal,vertical,horizontal,none,none,none
1c,5,100131,2,7,71,20,F,NA,variable,homogeneous,6,present,1.16312503814697,1,horizontal,horizontal,1,0.658820819854736,red,1,3,680.284751489598,825.151636179026,1054.84466088987,591.100628340862,680.284751489598,825.151636179026,935.129412379467,816.252264519889,1054.84466088987,591.100628340862,919.715248510402,374.848363820974,664.870587620533,383.747735480111,545.155339110131,608.899371659138,4,0,0,0,0,0,horizontal,vertical,vertical,vertical,horizontal,vertical
1c,5,100131,2,8,72,20,F,NA,variable,homogeneous,5,absent,0.619800090789795,1,vertical,vertical,1,1.047038230896,red,5,NaN,596.34794493794,753.462830903772,NaN,NaN,883.019879386575,841.107236777826,1054.96116226488,595.549636358493,874.554784704298,356.142287229426,591.116228706307,453.738008730483,596.34794493794,753.462830903772,0,0,0,0,0,0,4,NaN,vertical,vertical,vertical,horizontal,vertical,none
1c,5,100131,2,9,73,20,F,NA,variable,homogeneous,3,absent,0.79252815246582,1,horizontal,horizontal,1,0.611764163970947,green,2,NaN,1051.12597701811,644.280285305067,NaN,NaN,636.089159529932,795.341332995339,1051.12597701811,644.280285305067,712.784863451954,360.378381699593,0,0,0,0,0,0,0,4,0,NaN,NaN,NaN,vertical,horizontal,horizontal,none,none,none
1c,5,100131,2,10,74,20,F,NA,variable,homogeneous,4,present,0.636550188064575,1,horizontal,horizontal,1,0.811754951477051,red,2,1,1048.46436652023,542.637481142314,857.362518857686,848.464366520235,857.362518857686,848.464366520235,1048.46436652023,542.637481142314,742.637481142314,351.535633479765,551.535633479765,657.362518857686,0,0,0,0,0,4,0,0,NaN,NaN,vertical,horizontal,vertical,vertical,none,none
1c,5,100131,2,11,75,20,F,NA,variable,homogeneous,3,absent,0.611920118331909,1,horizontal,horizontal,1,0.705877475738525,red,1,NaN,622.862115532956,783.431649086356,NaN,NaN,622.862115532956,783.431649086356,1047.42541020038,661.690083377915,729.712474266665,354.878267535729,0,0,0,0,0,0,4,0,0,NaN,NaN,NaN,horizontal,horizontal,horizontal,none,none,none
1c,5,100131,2,12,76,20,F,NA,variable,homogeneous,5,present,0.618569850921631,1,horizontal,horizontal,1,0.905868263244629,red,2,3,1041.10723677783,683.019879386575,953.462830903772,396.34794493794,795.549636358493,854.96116226488,1041.10723677783,683.019879386575,953.462830903772,396.34794493794,653.738008730483,391.116228706307,556.142287229426,674.554784704298,0,0,0,4,0,0,0,NaN,vertical,horizontal,horizontal,horizontal,horizontal,none
1c,5,100131,2,13,77,20,F,NA,variable,homogeneous,5,absent,0.679969072341919,1,vertical,vertical,1,1.05880239486694,green,3,NaN,949.885239334581,393.700666434388,NaN,NaN,800,855,1042.51941165526,678.799333565612,949.885239334581,393.700666434388,650.114760665419,393.700666434388,557.480588344736,678.799333565612,0,0,0,0,4,0,0,NaN,horizontal,vertical,vertical,vertical,horizontal,none
1c,5,100131,2,14,78,20,F,NA,variable,homogeneous,6,present,0.588931083679199,0,vertical,horizontal,1,0.752934131622314,red,6,3,626.090418184063,786.495193912888,973.909581815937,413.504806087112,874.554784704298,843.857712770574,1048.46436652023,657.362518857686,973.909581815937,413.504806087112,725.445215295702,356.142287229426,551.535633479765,542.637481142314,626.090418184063,786.495193912888,0,0,0,0,0,4,horizontal,horizontal,horizontal,horizontal,horizontal,vertical
1c,5,100131,2,15,79,20,F,NA,variable,homogeneous,6,present,0.881733894348145,1,vertical,vertical,1,0.835283279418945,green,2,1,1043.85771277057,674.554784704298,857.362518857686,848.464366520235,857.362518857686,848.464366520235,1043.85771277057,674.554784704298,986.495193912888,426.090418184063,742.637481142314,351.535633479765,556.142287229426,525.445215295702,613.504806087112,773.909581815937,0,4,0,0,0,0,vertical,vertical,horizontal,vertical,horizontal,horizontal
1c,5,100131,2,16,80,20,F,NA,variable,homogeneous,3,present,0.650221824645996,1,horizontal,horizontal,1,0.72940580368042,red,2,3,1053.09926866854,631.076682568313,700.363562235235,365.271262369628,646.537169096228,803.65205506206,1053.09926866854,631.076682568313,700.363562235235,365.271262369628,0,0,0,0,0,0,0,4,0,NaN,NaN,NaN,vertical,horizontal,vertical,none,none,none
1c,5,100131,2,17,81,20,F,NA,variable,homogeneous,3,present,0.680833101272583,1,horizontal,horizontal,1,0.670584983825684,red,2,3,861.690083377915,352.574589799621,554.878267535729,670.287525733335,983.431649086356,777.137884467044,861.690083377915,352.574589799621,554.878267535729,670.287525733335,0,0,0,0,0,0,0,4,0,NaN,NaN,NaN,vertical,horizontal,vertical,none,none,none
1c,5,100131,2,18,82,20,F,NA,variable,homogeneous,4,present,0.792995929718018,1,vertical,vertical,1,0.917632427215576,red,1,4,764.510859255183,852.518357529101,547.481642470899,564.510859255183,764.510859255183,852.518357529101,1052.5183575291,635.489140744817,835.489140744817,347.4816424709,547.481642470899,564.510859255183,0,0,0,0,4,0,0,0,NaN,NaN,vertical,horizontal,vertical,horizontal,none,none
1c,5,100131,2,19,83,20,F,NA,variable,homogeneous,3,absent,0.675343990325928,1,horizontal,horizontal,1,0.917632427215576,red,1,NaN,949.885239334581,806.299333565612,NaN,NaN,949.885239334581,806.299333565612,903.717843984329,367.045908301137,546.39691668109,626.654758133252,0,0,0,0,0,0,4,0,0,NaN,NaN,NaN,horizontal,vertical,horizontal,none,none,none
1c,5,100131,2,20,84,20,F,NA,variable,homogeneous,4,present,0.742218971252441,1,vertical,vertical,1,0.658820819854736,green,4,3,545.349468637584,613.345668841951,786.654331158049,345.349468637584,813.345668841951,854.650531362416,1054.65053136242,586.654331158049,786.654331158049,345.349468637584,545.349468637584,613.345668841951,0,0,0,0,0,0,0,4,NaN,NaN,vertical,vertical,vertical,vertical,none,none
1c,5,100131,2,21,85,20,F,NA,variable,homogeneous,6,absent,0.925782918930054,1,horizontal,horizontal,1,0.823519115447998,green,4,NaN,878.799333565612,357.480588344736,NaN,NaN,721.200666434388,842.519411655264,970.628304621509,789.501930496736,1049.42763818712,546.982518841471,878.799333565612,357.480588344736,629.371695378491,410.498069503264,550.57236181288,653.017481158529,0,0,0,4,0,0,vertical,horizontal,horizontal,horizontal,vertical,vertical
1c,5,100131,2,22,86,20,F,NA,variable,homogeneous,6,absent,0.672071933746338,1,vertical,vertical,1,0.98821741104126,green,3,NaN,963.910840470068,404.658667004661,NaN,NaN,887.215136548046,839.621618300407,1051.12597701811,644.280285305067,963.910840470068,404.658667004661,712.784863451954,360.378381699593,548.874022981887,555.719714694933,636.089159529932,795.341332995339,0,0,4,0,0,0,vertical,horizontal,vertical,vertical,horizontal,vertical
1c,5,100131,2,23,87,20,F,NA,variable,homogeneous,6,absent,0.886210918426514,1,horizontal,horizontal,1,0.623528327941895,red,1,NaN,853.017481158529,849.42763818712,NaN,NaN,853.017481158529,849.42763818712,1042.51941165526,678.799333565612,989.501930496736,429.371695378491,746.982518841471,350.57236181288,557.480588344736,521.200666434388,610.498069503264,770.628304621509,4,0,0,0,0,0,horizontal,vertical,vertical,vertical,vertical,vertical
1c,5,100131,2,24,88,20,F,NA,variable,homogeneous,6,absent,0.591871976852417,1,horizontal,horizontal,1,0.776462459564209,red,4,NaN,899.636437764765,365.271262369628,NaN,NaN,700.363562235235,834.728737630372,953.462830903772,803.65205506206,1053.09926866854,568.923317431687,899.636437764765,365.271262369628,646.537169096228,396.34794493794,546.900731331463,631.076682568313,0,0,0,4,0,0,vertical,horizontal,vertical,horizontal,vertical,horizontal
1c,5,100131,2,25,89,20,F,NA,variable,homogeneous,3,absent,0.621819019317627,1,vertical,vertical,1,0.905868263244629,red,3,NaN,716.980120613425,358.892763222174,NaN,NaN,632.704947607421,792.450942956807,1050.31493177915,648.656293821019,716.980120613425,358.892763222174,0,0,0,0,0,0,0,0,4,NaN,NaN,NaN,horizontal,vertical,vertical,none,none,none
1c,5,100131,2,26,90,20,F,NA,variable,homogeneous,6,present,0.756596088409424,1,vertical,vertical,1,0.905868263244629,red,3,5,1051.12597701811,555.719714694933,636.089159529932,404.658667004661,712.784863451954,839.621618300407,963.910840470068,795.341332995339,1051.12597701811,555.719714694933,887.215136548046,360.378381699593,636.089159529932,404.658667004661,548.874022981887,644.280285305067,0,0,4,0,0,0,vertical,horizontal,vertical,vertical,horizontal,vertical
1c,5,100131,2,27,91,20,F,NA,variable,homogeneous,4,absent,0.897677898406982,1,vertical,vertical,1,0.694113311767578,red,1,NaN,795.549636358493,854.96116226488,NaN,NaN,795.549636358493,854.96116226488,1054.96116226488,604.450363641507,804.450363641507,345.03883773512,545.03883773512,595.549636358493,0,0,0,0,4,0,0,0,NaN,NaN,vertical,horizontal,horizontal,horizontal,none,none
1c,5,100131,2,28,92,20,F,NA,variable,homogeneous,5,present,0.906566143035889,1,vertical,vertical,1,0.941160755157471,green,1,3,751.343706178981,850.314931779154,986.495193912888,426.090418184063,751.343706178981,850.314931779154,1023.02802532055,723.626453162816,986.495193912888,426.090418184063,692.232343256122,368.891514305654,546.900731331463,631.076682568313,0,0,4,0,0,0,0,NaN,vertical,horizontal,horizontal,horizontal,vertical,none
1c,5,100131,2,29,93,20,F,NA,variable,homogeneous,4,present,0.653665065765381,1,vertical,vertical,1,1.047038230896,green,2,1,1038.06300875679,691.383827134052,708.616172865948,838.063008756786,708.616172865948,838.063008756786,1038.06300875679,691.383827134052,891.383827134052,361.936991243214,561.936991243214,508.616172865948,0,0,0,0,0,4,0,0,NaN,NaN,horizontal,vertical,vertical,vertical,none,none
1c,5,100131,2,30,94,20,F,NA,variable,homogeneous,3,present,0.84608006477356,1,horizontal,horizontal,1,0.941160755157471,green,1,2,791.100628340862,854.844660889869,1025.15163617903,480.284751489598,791.100628340862,854.844660889869,1025.15163617903,480.284751489598,583.747735480111,464.870587620533,0,0,0,0,0,0,4,0,0,NaN,NaN,NaN,horizontal,horizontal,vertical,none,none,none
1c,5,100131,2,31,95,20,F,NA,variable,homogeneous,3,absent,0.609261989593506,1,vertical,vertical,1,0.705877475738525,green,2,NaN,1042.51941165526,678.799333565612,NaN,NaN,610.498069503264,770.628304621509,1042.51941165526,678.799333565612,746.982518841471,350.57236181288,0,0,0,0,0,0,0,4,0,NaN,NaN,NaN,vertical,vertical,horizontal,none,none,none
1c,5,100131,2,32,96,20,F,NA,variable,homogeneous,5,absent,0.603938102722168,1,vertical,vertical,1,0.705877475738525,green,2,NaN,1052.5183575291,564.510859255183,NaN,NaN,911.784642431215,829.192481806288,1052.5183575291,564.510859255183,844.280285305067,348.874022981887,574.848363820974,480.284751489598,616.568350913644,777.137884467044,0,0,0,4,0,0,0,NaN,horizontal,vertical,vertical,vertical,vertical,none
1c,5,100131,2,33,97,20,F,NA,variable,homogeneous,6,present,0.745017051696777,1,horizontal,horizontal,1,0.847047443389893,red,3,5,967.295052392579,407.549057043193,549.685068220846,551.343706178981,883.019879386575,841.107236777826,1050.31493177915,648.656293821019,967.295052392579,407.549057043193,716.980120613425,358.892763222174,549.685068220846,551.343706178981,632.704947607421,792.450942956807,0,0,4,0,0,0,vertical,horizontal,horizontal,vertical,horizontal,vertical
1c,5,100131,2,34,98,20,F,NA,variable,homogeneous,5,present,1.42561507225037,1,vertical,vertical,1,0.870575771331787,green,5,4,552.574589799621,538.309916622085,782.212099195248,345.621167183745,664.870587620533,816.252264519889,963.910840470068,795.341332995339,1036.43188291453,504.475318678942,782.212099195248,345.621167183745,552.574589799621,538.309916622085,0,0,0,0,0,0,4,NaN,horizontal,horizontal,vertical,vertical,vertical,none
1c,5,100131,2,35,99,20,F,NA,variable,homogeneous,6,absent,0.616591930389404,1,vertical,vertical,1,0.717641639709473,green,4,NaN,808.899371659138,345.155339110131,NaN,NaN,791.100628340862,854.844660889869,1016.25226451989,735.129412379467,1025.15163617903,480.284751489598,808.899371659138,345.155339110131,583.747735480111,464.870587620533,574.848363820974,719.715248510402,0,0,0,4,0,0,vertical,vertical,vertical,vertical,horizontal,horizontal
1c,5,100131,2,36,100,20,F,NA,variable,homogeneous,5,present,0.773289918899536,1,vertical,vertical,1,0.611764163970947,red,2,3,1047.42541020038,538.309916622085,817.787900804752,345.621167183745,935.129412379467,816.252264519889,1047.42541020038,538.309916622085,817.787900804752,345.621167183745,563.568117085469,504.475318678942,636.089159529932,795.341332995339,0,0,0,4,0,0,0,NaN,horizontal,vertical,horizontal,horizontal,horizontal,none
1c,5,100131,2,37,101,20,F,NA,variable,homogeneous,5,present,0.661441087722778,1,horizontal,horizontal,1,0.823519115447998,green,4,5,773.345241866748,346.39691668109,550.57236181288,546.982518841471,672.5,820.836477965032,970.628304621509,789.501930496736,1032.95409169886,496.282156015671,773.345241866748,346.39691668109,550.57236181288,546.982518841471,0,0,0,0,0,4,0,NaN,horizontal,vertical,horizontal,horizontal,vertical,none
1c,5,100131,2,38,102,20,F,NA,variable,homogeneous,6,present,0.922324895858765,1,vertical,vertical,1,0.98821741104126,green,2,6,977.137884467044,783.431649086356,552.574589799621,661.690083377915,729.712474266665,845.121732464271,977.137884467044,783.431649086356,1047.42541020038,538.309916622085,870.287525733335,354.878267535729,622.862115532956,416.568350913644,552.574589799621,661.690083377915,0,4,0,0,0,0,vertical,vertical,vertical,horizontal,vertical,vertical
1c,5,100131,2,39,103,20,F,NA,variable,homogeneous,5,absent,0.701454877853394,1,horizontal,horizontal,1,0.811754951477051,red,2,NaN,960.476699717708,798.172220171528,NaN,NaN,661.117046071168,813.860994826083,960.476699717708,798.172220171528,1038.06300875679,508.616172865948,786.654331158049,345.349468637584,553.688914296288,534.001143498857,0,0,0,4,0,0,0,NaN,horizontal,horizontal,horizontal,vertical,horizontal,none
1c,5,100131,2,40,104,20,F,NA,variable,homogeneous,5,present,0.828994989395142,1,horizontal,horizontal,1,1.07056655883789,green,5,2,568.891514305654,707.767656743878,1050.31493177915,648.656293821019,831.076682568313,853.099268668537,1050.31493177915,648.656293821019,923.626453162816,376.971974679454,626.090418184063,413.504806087112,568.891514305654,707.767656743878,0,0,0,0,0,0,4,NaN,horizontal,vertical,horizontal,vertical,horizontal,none
1c,5,100131,2,41,105,20,F,NA,variable,homogeneous,4,absent,0.726008892059326,1,vertical,vertical,1,0.611764163970947,green,1,NaN,725.445215295702,843.857712770574,NaN,NaN,725.445215295702,843.857712770574,1043.85771277057,674.554784704298,874.554784704298,356.142287229426,556.142287229426,525.445215295702,0,0,0,0,4,0,0,0,NaN,NaN,vertical,vertical,horizontal,horizontal,none,none
1c,5,100131,2,42,106,20,F,NA,variable,homogeneous,5,absent,0.880817890167236,1,horizontal,horizontal,1,0.811754951477051,green,5,NaN,586.139005173917,738.882953928832,NaN,NaN,865.998856501143,846.311085703712,1054.65053136242,613.345668841951,891.383827134052,361.936991243214,601.827779828472,439.523300282291,586.139005173917,738.882953928832,0,0,0,0,0,0,4,NaN,vertical,horizontal,vertical,vertical,horizontal,none
1c,5,100131,2,43,107,20,F,NA,variable,homogeneous,3,present,0.611760854721069,1,vertical,vertical,1,0.85881160736084,red,3,2,570.807518193712,711.784642431215,817.787900804752,345.621167183745,1011.40458100154,742.594190385041,817.787900804752,345.621167183745,570.807518193712,711.784642431215,0,0,0,0,0,0,0,0,4,NaN,NaN,NaN,vertical,vertical,vertical,none,none,none
1c,5,100131,2,44,108,20,F,NA,variable,homogeneous,4,present,0.853560924530029,1,vertical,vertical,1,1.07056655883789,red,2,4,1006.29933356561,450.114760665419,593.700666434388,749.885239334581,949.885239334581,806.299333565612,1006.29933356561,450.114760665419,650.114760665419,393.700666434388,593.700666434388,749.885239334581,0,0,0,0,0,4,0,0,NaN,NaN,vertical,vertical,vertical,vertical,none,none
1c,5,100131,2,45,109,20,F,NA,variable,homogeneous,3,present,0.692763090133667,1,horizontal,horizontal,1,0.694113311767578,green,2,1,970.628304621509,410.498069503264,878.799333565612,842.519411655264,878.799333565612,842.519411655264,970.628304621509,410.498069503264,550.57236181288,546.982518841471,0,0,0,0,0,0,0,4,0,NaN,NaN,NaN,vertical,horizontal,vertical,none,none,none
1c,5,100131,2,46,110,20,F,NA,variable,homogeneous,4,absent,0.561214923858643,1,horizontal,horizontal,1,0.705877475738525,green,4,NaN,572.793336331966,484.232422566416,NaN,NaN,684.232422566416,827.206663668034,1027.20666366803,715.767577433584,915.767577433584,372.793336331966,572.793336331966,484.232422566416,0,0,0,0,0,0,0,4,NaN,NaN,vertical,horizontal,vertical,horizontal,none,none
1c,5,100131,2,47,111,20,F,NA,variable,homogeneous,5,present,0.673094034194946,1,vertical,vertical,1,1.03527406692505,red,5,3,546.39691668109,573.345241866748,1020.83647796503,472.5,696.282156015671,832.954091698863,989.501930496736,770.628304621509,1020.83647796503,472.5,746.982518841471,350.57236181288,546.39691668109,573.345241866748,0,0,0,0,0,0,4,NaN,horizontal,vertical,vertical,horizontal,vertical,none
1c,5,100131,2,48,112,20,F,NA,variable,homogeneous,5,absent,0.559655904769897,1,horizontal,horizontal,1,1.047038230896,green,4,NaN,643.006323791957,399.057257830286,NaN,NaN,808.899371659138,854.844660889869,1045.12173246427,670.287525733335,942.594190385041,388.595418998464,643.006323791957,399.057257830286,560.378381699593,687.215136548046,0,0,0,0,0,4,0,NaN,vertical,vertical,horizontal,horizontal,horizontal,none
1c,5,100131,2,49,113,20,F,NA,variable,homogeneous,3,present,0.555969953536987,1,vertical,vertical,1,0.847047443389893,red,2,3,1049.42763818712,546.982518841471,629.371695378491,410.498069503264,721.200666434388,842.519411655264,1049.42763818712,546.982518841471,629.371695378491,410.498069503264,0,0,0,0,0,0,0,4,0,NaN,NaN,NaN,horizontal,vertical,horizontal,none,none,none
1c,5,100131,2,50,114,20,F,NA,variable,homogeneous,4,absent,0.720412969589233,1,horizontal,horizontal,1,0.647056655883789,red,3,NaN,672.5,379.163522034968,NaN,NaN,927.5,820.836477965032,1020.83647796503,472.5,672.5,379.163522034968,579.163522034968,727.5,0,0,0,0,0,0,4,0,NaN,NaN,horizontal,horizontal,horizontal,horizontal,none,none
1c,5,100131,2,51,115,20,F,NA,variable,homogeneous,4,present,0.61156702041626,1,horizontal,horizontal,1,0.835283279418945,green,4,2,551.535633479765,657.362518857686,1048.46436652023,542.637481142314,857.362518857686,848.464366520235,1048.46436652023,542.637481142314,742.637481142314,351.535633479765,551.535633479765,657.362518857686,0,0,0,0,0,0,0,4,NaN,NaN,horizontal,vertical,horizontal,horizontal,none,none
1c,5,100131,2,52,116,20,F,NA,variable,homogeneous,5,absent,0.657340049743652,1,vertical,vertical,1,1.05880239486694,red,2,NaN,1027.20666366803,715.767577433584,NaN,NaN,760.109211414741,851.86052685176,1027.20666366803,715.767577433584,980.31222920257,419.68777079743,684.232422566416,372.793336331966,548.13947314824,639.890788585259,0,0,0,4,0,0,0,NaN,vertical,vertical,horizontal,vertical,vertical,none
1c,5,100131,2,53,117,20,F,NA,variable,homogeneous,6,present,1.03699111938477,1,horizontal,horizontal,1,0.929396591186523,green,2,3,1023.02802532055,723.626453162816,1018.57766167904,468.665290897936,804.450363641507,854.96116226488,1023.02802532055,723.626453162816,1018.57766167904,468.665290897936,795.549636358493,345.03883773512,576.971974679454,476.373546837184,581.422338320961,731.334709102064,0,4,0,0,0,0,vertical,horizontal,horizontal,vertical,horizontal,vertical
1c,5,100131,2,54,118,20,F,NA,variable,homogeneous,6,absent,0.809797048568726,1,vertical,vertical,1,0.98821741104126,red,2,NaN,953.462830903772,803.65205506206,NaN,NaN,700.363562235235,834.728737630372,953.462830903772,803.65205506206,1053.09926866854,568.923317431687,899.636437764765,365.271262369628,646.537169096228,396.34794493794,546.900731331463,631.076682568313,0,4,0,0,0,0,horizontal,vertical,vertical,vertical,horizontal,vertical
1c,5,100131,2,55,119,20,F,NA,variable,homogeneous,5,present,0.919010877609253,1,horizontal,horizontal,1,0.647056655883789,red,2,5,1042.51941165526,521.200666434388,650.114760665419,806.299333565612,949.885239334581,806.299333565612,1042.51941165526,521.200666434388,800,345,557.480588344736,521.200666434388,650.114760665419,806.299333565612,0,0,0,4,0,0,0,NaN,vertical,horizontal,horizontal,horizontal,horizontal,none
1c,5,100131,2,56,120,20,F,NA,variable,homogeneous,4,present,0.521411180496216,1,horizontal,horizontal,1,0.98821741104126,red,3,2,657.405809614959,388.595418998464,1011.40458100154,457.40580961496,942.594190385041,811.404581001536,1011.40458100154,457.40580961496,657.405809614959,388.595418998464,588.595418998464,742.594190385041,0,0,0,0,0,0,4,0,NaN,NaN,vertical,horizontal,horizontal,horizontal,none,none
1c,5,100131,2,57,121,20,F,NA,variable,homogeneous,4,absent,0.563724040985107,1,horizontal,horizontal,1,0.788226623535156,red,4,NaN,546.39691668109,626.654758133252,NaN,NaN,826.654758133252,853.60308331891,1053.60308331891,573.345241866748,773.345241866748,346.39691668109,546.39691668109,626.654758133252,0,0,0,0,0,0,0,4,NaN,NaN,horizontal,vertical,horizontal,horizontal,none,none
1c,5,100131,2,58,122,20,F,NA,variable,homogeneous,6,present,0.761008024215698,1,horizontal,horizontal,1,0.682349147796631,green,4,2,704.475318678942,363.568117085469,1052.5183575291,635.489140744817,895.524681321058,836.431882914531,1052.5183575291,635.489140744817,956.993676208043,399.057257830286,704.475318678942,363.568117085469,547.481642470899,564.510859255183,643.006323791957,800.942742169714,0,0,0,4,0,0,horizontal,horizontal,vertical,horizontal,horizontal,vertical
1c,5,100131,2,59,123,20,F,NA,variable,homogeneous,3,absent,0.633512020111084,1,vertical,vertical,1,1.05880239486694,green,1,NaN,1006.29933356561,749.885239334581,NaN,NaN,1006.29933356561,749.885239334581,826.654758133252,346.39691668109,567.045908301137,703.717843984329,0,0,0,0,0,0,4,0,0,NaN,NaN,NaN,vertical,horizontal,vertical,none,none,none
1c,5,100131,2,60,124,20,F,NA,variable,homogeneous,3,absent,0.542354106903076,1,vertical,vertical,1,0.623528327941895,red,1,NaN,865.998856501143,846.311085703712,NaN,NaN,865.998856501143,846.311085703712,980.31222920257,419.68777079743,553.688914296288,534.001143498857,0,0,0,0,0,0,4,0,0,NaN,NaN,NaN,vertical,vertical,horizontal,none,none,none
1c,5,100131,2,61,125,20,F,NA,variable,homogeneous,4,absent,0.528177976608276,1,vertical,vertical,1,0.917632427215576,red,1,NaN,817.787900804752,854.378832816255,NaN,NaN,817.787900804752,854.378832816255,1054.37883281626,582.212099195248,782.212099195248,345.621167183745,545.621167183745,617.787900804752,0,0,0,0,4,0,0,0,NaN,NaN,vertical,horizontal,horizontal,horizontal,none,none
1c,5,100131,2,62,126,20,F,NA,variable,homogeneous,4,present,0.728698968887329,1,horizontal,horizontal,1,1.08233072280884,green,3,4,977.137884467044,416.568350913644,616.568350913644,422.862115532956,622.862115532956,783.431649086356,983.431649086356,777.137884467044,977.137884467044,416.568350913644,616.568350913644,422.862115532956,0,0,0,0,0,0,4,0,NaN,NaN,horizontal,horizontal,horizontal,vertical,none,none
1c,5,100131,2,63,127,20,F,NA,variable,homogeneous,6,absent,0.604981899261475,1,horizontal,horizontal,1,0.870575771331787,green,2,NaN,1054.37883281626,617.787900804752,NaN,NaN,911.784642431215,829.192481806288,1054.37883281626,617.787900804752,942.594190385041,388.595418998464,688.215357568785,370.807518193712,545.621167183745,582.212099195248,657.405809614959,811.404581001536,0,4,0,0,0,0,vertical,horizontal,vertical,horizontal,vertical,vertical
1c,5,100131,2,64,128,20,F,NA,variable,homogeneous,4,absent,0.710194110870361,1,vertical,vertical,1,0.835283279418945,green,4,NaN,610.498069503264,770.628304621509,NaN,NaN,970.628304621509,789.501930496736,989.501930496736,429.371695378491,629.371695378491,410.498069503264,610.498069503264,770.628304621509,0,0,0,0,0,0,0,4,NaN,NaN,horizontal,vertical,vertical,vertical,none,none
1c,5,100131,3,1,129,20,F,NA,variable,homogeneous,3,present,0.772119045257568,1,horizontal,horizontal,1,0.917632427215576,green,3,2,579.163522034968,472.5,1020.83647796503,472.5,800,855,1020.83647796503,472.5,579.163522034968,472.5,0,0,0,0,0,0,0,0,4,NaN,NaN,NaN,vertical,horizontal,horizontal,none,none,none
1c,5,100131,3,2,130,20,F,NA,variable,homogeneous,6,absent,0.640264987945557,1,horizontal,horizontal,1,0.635292491912842,red,4,NaN,684.232422566416,372.793336331966,NaN,NaN,915.767577433584,827.206663668034,1054.65053136242,613.345668841951,938.882953928832,386.139005173917,684.232422566416,372.793336331966,545.349468637584,586.654331158049,661.117046071168,813.860994826083,0,0,0,4,0,0,horizontal,vertical,vertical,horizontal,vertical,vertical
1c,5,100131,3,3,131,20,F,NA,variable,homogeneous,6,present,1.04892683029175,1,horizontal,horizontal,1,0.976453247070312,green,3,4,1003.65205506206,446.537169096228,768.923317431687,346.900731331463,831.076682568313,853.099268668537,1034.72873763037,699.636437764765,1003.65205506206,446.537169096228,768.923317431687,346.900731331463,565.271262369628,500.363562235235,596.34794493794,753.462830903772,0,0,4,0,0,0,horizontal,vertical,horizontal,horizontal,horizontal,horizontal
1c,5,100131,3,4,132,20,F,NA,variable,homogeneous,3,absent,0.566071033477783,1,horizontal,horizontal,1,0.799990787506104,green,2,NaN,907.767656743878,368.891514305654,NaN,NaN,946.261991269517,808.883771293693,907.767656743878,368.891514305654,545.970351986605,622.224714400653,0,0,0,0,0,0,0,4,0,NaN,NaN,NaN,horizontal,horizontal,horizontal,none,none,none
1c,5,100131,3,5,133,20,F,NA,variable,homogeneous,3,absent,0.571321964263916,1,horizontal,horizontal,1,1.08233072280884,red,2,NaN,817.787900804752,345.621167183745,NaN,NaN,1011.40458100154,742.594190385041,817.787900804752,345.621167183745,570.807518193712,711.784642431215,0,0,0,0,0,0,0,4,0,NaN,NaN,NaN,vertical,horizontal,vertical,none,none,none
1c,5,100131,3,6,134,20,F,NA,variable,homogeneous,3,present,0.674281120300293,1,vertical,vertical,1,0.776462459564209,red,1,3,696.282156015671,832.954091698863,650.114760665419,393.700666434388,696.282156015671,832.954091698863,1053.60308331891,573.345241866748,650.114760665419,393.700666434388,0,0,0,0,0,0,4,0,0,NaN,NaN,NaN,vertical,horizontal,horizontal,none,none,none
1c,5,100131,3,7,135,20,F,NA,variable,homogeneous,6,absent,0.607521057128906,1,horizontal,horizontal,1,0.776462459564209,green,5,NaN,579.163522034968,472.5,NaN,NaN,800,855,1020.83647796503,727.5,1020.83647796503,472.5,800,345,579.163522034968,472.5,579.163522034968,727.5,0,0,0,0,4,0,horizontal,horizontal,vertical,horizontal,horizontal,vertical
1c,5,100131,3,8,136,20,F,NA,variable,homogeneous,5,present,0.810807228088379,1,horizontal,horizontal,1,0.752934131622314,green,1,2,839.890788585259,851.86052685176,1051.86052685176,639.890788585259,839.890788585259,851.86052685176,1051.86052685176,639.890788585259,915.767577433584,372.793336331966,619.68777079743,419.68777079743,572.793336331966,715.767577433584,0,0,4,0,0,0,0,NaN,horizontal,horizontal,vertical,vertical,vertical,none
1c,5,100131,3,9,137,20,F,NA,variable,homogeneous,6,present,0.580658912658691,1,horizontal,horizontal,1,1.07056655883789,red,5,3,586.139005173917,461.117046071168,1027.20666366803,484.232422566416,786.654331158049,854.650531362416,1013.86099482608,738.882953928832,1027.20666366803,484.232422566416,813.345668841951,345.349468637584,586.139005173917,461.117046071168,572.793336331966,715.767577433584,0,0,0,0,4,0,horizontal,horizontal,horizontal,horizontal,horizontal,horizontal
1c,5,100131,3,10,138,20,F,NA,variable,homogeneous,5,present,0.57049298286438,1,vertical,vertical,1,0.894104099273682,red,2,3,1034.72873763037,699.636437764765,967.295052392579,407.549057043193,777.775285599347,854.029648013395,1034.72873763037,699.636437764765,967.295052392579,407.549057043193,668.665290897936,381.422338320961,551.535633479765,657.362518857686,0,0,0,4,0,0,0,NaN,vertical,vertical,vertical,vertical,horizontal,none
1c,5,100131,3,11,139,20,F,NA,variable,homogeneous,4,present,0.591599941253662,1,vertical,vertical,1,0.682349147796631,green,2,4,1054.0296480134,622.224714400653,545.970351986605,577.775285599347,777.775285599347,854.029648013395,1054.0296480134,622.224714400653,822.224714400653,345.970351986605,545.970351986605,577.775285599347,0,0,0,0,0,4,0,0,NaN,NaN,horizontal,vertical,vertical,horizontal,none,none
1c,5,100131,3,12,140,20,F,NA,variable,homogeneous,5,present,0.877412080764771,1,horizontal,horizontal,1,0.682349147796631,green,5,4,545,600,721.200666434388,357.480588344736,721.200666434388,842.519411655264,1006.29933356561,749.885239334581,1006.29933356561,450.114760665419,721.200666434388,357.480588344736,545,600,0,0,0,0,0,0,4,NaN,vertical,horizontal,vertical,horizontal,horizontal,none
1c,5,100131,3,13,141,20,F,NA,variable,homogeneous,5,absent,0.755805015563965,1,vertical,vertical,1,1.047038230896,red,4,NaN,622.862115532956,416.568350913644,NaN,NaN,835.489140744817,852.518357529101,1051.12597701811,644.280285305067,919.715248510402,374.848363820974,622.862115532956,416.568350913644,570.807518193712,711.784642431215,0,0,0,0,0,4,0,NaN,horizontal,horizontal,vertical,vertical,horizontal,none
1c,5,100131,3,14,142,20,F,NA,variable,homogeneous,6,absent,0.666289091110229,1,vertical,vertical,1,0.941160755157471,green,3,NaN,1008.88377129369,453.738008730483,NaN,NaN,822.224714400653,854.029648013395,1031.10848569435,707.767656743878,1008.88377129369,453.738008730483,777.775285599347,345.970351986605,568.891514305654,492.232343256122,591.116228706307,746.261991269517,0,0,4,0,0,0,vertical,horizontal,vertical,vertical,vertical,vertical
1c,5,100131,3,15,143,20,F,NA,variable,homogeneous,4,absent,0.700074911117554,1,vertical,vertical,1,1.0235099029541,red,1,NaN,653.738008730483,808.883771293693,NaN,NaN,653.738008730483,808.883771293693,1008.88377129369,746.261991269517,946.261991269517,391.116228706307,591.116228706307,453.738008730483,0,0,0,0,4,0,0,0,NaN,NaN,vertical,horizontal,horizontal,vertical,none,none
1c,5,100131,3,16,144,20,F,NA,variable,homogeneous,4,absent,0.667617082595825,1,horizontal,horizontal,1,0.670584983825684,green,1,NaN,729.712474266665,845.121732464271,NaN,NaN,729.712474266665,845.121732464271,1045.12173246427,670.287525733335,870.287525733335,354.878267535729,554.878267535729,529.712474266665,0,0,0,0,4,0,0,0,NaN,NaN,horizontal,horizontal,vertical,horizontal,none,none
1c,5,100131,3,17,145,20,F,NA,variable,homogeneous,5,absent,0.561729907989502,1,horizontal,horizontal,1,1.03527406692505,green,5,NaN,650.114760665419,806.299333565612,NaN,NaN,949.885239334581,806.299333565612,1042.51941165526,521.200666434388,800,345,557.480588344736,521.200666434388,650.114760665419,806.299333565612,0,0,0,0,0,0,4,NaN,vertical,vertical,horizontal,horizontal,horizontal,none
1c,5,100131,3,18,146,20,F,NA,variable,homogeneous,6,present,0.679543018341064,1,vertical,vertical,1,0.917632427215576,red,4,2,760.109211414741,348.13947314824,1038.06300875679,691.383827134052,839.890788585259,851.86052685176,1038.06300875679,691.383827134052,998.172220171528,439.523300282291,760.109211414741,348.13947314824,561.936991243214,508.616172865948,601.827779828472,760.476699717708,0,0,0,4,0,0,vertical,vertical,vertical,vertical,vertical,horizontal
1c,5,100131,3,19,147,20,F,NA,variable,homogeneous,5,absent,0.711788892745972,1,vertical,vertical,1,0.741169967651367,red,1,NaN,883.019879386575,841.107236777826,NaN,NaN,883.019879386575,841.107236777826,1054.96116226488,595.549636358493,874.554784704298,356.142287229426,591.116228706307,453.738008730483,596.34794493794,753.462830903772,0,0,4,0,0,0,0,NaN,vertical,horizontal,vertical,horizontal,vertical,none
1c,5,100131,3,20,148,20,F,NA,variable,homogeneous,4,present,0.485276937484741,1,vertical,vertical,1,0.741169967651367,green,3,1,946.261991269517,391.116228706307,653.738008730483,808.883771293693,653.738008730483,808.883771293693,1008.88377129369,746.261991269517,946.261991269517,391.116228706307,591.116228706307,453.738008730483,0,0,0,0,0,0,4,0,NaN,NaN,horizontal,horizontal,vertical,vertical,none,none
1c,5,100131,3,21,149,20,F,NA,variable,homogeneous,3,present,0.555958032608032,1,horizontal,horizontal,1,1.03527406692505,red,1,3,639.523300282292,798.172220171528,708.616172865948,361.936991243214,639.523300282292,798.172220171528,1051.86052685176,639.890788585259,708.616172865948,361.936991243214,0,0,0,0,0,0,4,0,0,NaN,NaN,NaN,horizontal,vertical,horizontal,none,none,none
1c,5,100131,3,22,150,20,F,NA,variable,homogeneous,5,present,0.532036066055298,1,horizontal,horizontal,1,0.835283279418945,red,3,5,853.017481158529,350.57236181288,610.498069503264,770.628304621509,903.717843984329,832.954091698863,1053.60308331891,573.345241866748,853.017481158529,350.57236181288,579.163522034968,472.5,610.498069503264,770.628304621509,0,0,0,0,4,0,0,NaN,horizontal,horizontal,horizontal,horizontal,horizontal,none
1c,5,100131,3,23,151,20,F,NA,variable,homogeneous,5,present,0.613938093185425,1,vertical,vertical,1,0.752934131622314,green,1,5,848.656293821019,850.314931779154,576.971974679454,723.626453162816,848.656293821019,850.314931779154,1053.09926866854,631.076682568313,907.767656743878,368.891514305654,613.504806087112,426.090418184063,576.971974679454,723.626453162816,0,0,4,0,0,0,0,NaN,vertical,vertical,vertical,horizontal,vertical,none
1c,5,100131,3,24,152,20,F,NA,variable,homogeneous,6,absent,0.844820976257324,0,vertical,horizontal,1,0.72940580368042,red,1,NaN,712.784863451954,839.621618300407,NaN,NaN,712.784863451954,839.621618300407,963.910840470068,795.341332995339,1051.12597701811,555.719714694933,887.215136548046,360.378381699593,636.089159529932,404.658667004661,548.874022981887,644.280285305067,4,0,0,0,0,0,vertical,vertical,horizontal,horizontal,horizontal,horizontal
1c,5,100131,3,25,153,20,F,NA,variable,homogeneous,5,present,0.825045824050903,1,horizontal,horizontal,1,0.964689083099365,red,2,5,992.450942956807,767.295052392579,545.970351986605,577.775285599347,700.363562235235,834.728737630372,992.450942956807,767.295052392579,1018.57766167904,468.665290897936,742.637481142314,351.535633479765,545.970351986605,577.775285599347,0,0,0,4,0,0,0,NaN,vertical,horizontal,horizontal,vertical,horizontal,none
1c,5,100131,3,26,154,20,F,NA,variable,homogeneous,5,absent,0.666512012481689,1,horizontal,horizontal,1,1.03527406692505,green,5,NaN,548.874022981887,555.719714694933,NaN,NaN,680.284751489598,825.151636179026,977.137884467044,783.431649086356,1029.19248180629,488.215357568785,764.510859255183,347.4816424709,548.874022981887,555.719714694933,0,0,0,0,0,0,4,NaN,vertical,horizontal,horizontal,vertical,horizontal,none
1c,5,100131,3,27,155,20,F,NA,variable,homogeneous,5,absent,0.624779224395752,1,horizontal,horizontal,1,0.635292491912842,red,1,NaN,919.715248510402,825.151636179026,NaN,NaN,919.715248510402,825.151636179026,1051.12597701811,555.719714694933,835.489140744817,347.4816424709,570.807518193712,488.215357568785,622.862115532956,783.431649086356,0,0,4,0,0,0,0,NaN,horizontal,vertical,vertical,vertical,vertical,none
1c,5,100131,3,28,156,20,F,NA,variable,homogeneous,4,absent,0.587016105651855,1,vertical,vertical,1,0.682349147796631,green,4,NaN,583.747735480111,735.129412379467,NaN,NaN,935.129412379467,816.252264519889,1016.25226451989,464.870587620533,664.870587620533,383.747735480111,583.747735480111,735.129412379467,0,0,0,0,0,0,0,4,NaN,NaN,vertical,vertical,horizontal,vertical,none,none
1c,5,100131,3,29,157,20,F,NA,variable,homogeneous,6,absent,0.639920949935913,1,vertical,vertical,1,0.835283279418945,green,3,NaN,938.882953928832,386.139005173917,NaN,NaN,915.767577433584,827.206663668034,1054.65053136242,613.345668841951,938.882953928832,386.139005173917,684.232422566416,372.793336331966,545.349468637584,586.654331158049,661.117046071168,813.860994826083,0,0,4,0,0,0,horizontal,horizontal,vertical,horizontal,horizontal,vertical
1c,5,100131,3,30,158,20,F,NA,variable,homogeneous,4,present,1.07840895652771,1,horizontal,horizontal,1,0.882339935302734,red,1,2,960.476699717708,798.172220171528,998.172220171528,439.523300282291,960.476699717708,798.172220171528,998.172220171528,439.523300282291,639.523300282292,401.827779828472,601.827779828472,760.476699717708,0,0,0,0,4,0,0,0,NaN,NaN,horizontal,horizontal,vertical,vertical,none,none
1c,5,100131,3,31,159,20,F,NA,variable,homogeneous,6,absent,0.796756982803345,1,horizontal,horizontal,1,0.623528327941895,green,6,NaN,563.568117085469,695.524681321058,NaN,NaN,764.510859255183,852.518357529101,1000.94274216971,756.993676208043,1036.43188291453,504.475318678942,835.489140744817,347.4816424709,599.057257830286,443.006323791957,563.568117085469,695.524681321058,0,0,0,0,0,4,vertical,vertical,horizontal,vertical,horizontal,horizontal
1c,5,100131,3,32,160,20,F,NA,variable,homogeneous,4,absent,0.850340127944946,1,vertical,vertical,1,0.682349147796631,red,1,NaN,956.993676208043,800.942742169714,NaN,NaN,956.993676208043,800.942742169714,1000.94274216971,443.006323791957,643.006323791957,399.057257830286,599.057257830286,756.993676208043,0,0,0,0,4,0,0,0,NaN,NaN,vertical,horizontal,horizontal,vertical,none,none
1c,5,100131,3,33,161,20,F,NA,variable,homogeneous,6,absent,0.645258188247681,1,vertical,vertical,1,0.882339935302734,red,1,NaN,899.636437764765,834.728737630372,NaN,NaN,899.636437764765,834.728737630372,1053.09926866854,631.076682568313,953.462830903772,396.34794493794,700.363562235235,365.271262369628,546.900731331463,568.923317431687,646.537169096228,803.65205506206,4,0,0,0,0,0,vertical,vertical,vertical,horizontal,horizontal,horizontal
1c,5,100131,3,34,162,20,F,NA,variable,homogeneous,5,absent,0.581278085708618,1,horizontal,horizontal,1,0.952924919128418,red,1,NaN,661.117046071168,813.860994826083,NaN,NaN,661.117046071168,813.860994826083,960.476699717708,798.172220171528,1038.06300875679,508.616172865948,786.654331158049,345.349468637584,553.688914296288,534.001143498857,0,0,4,0,0,0,0,NaN,horizontal,horizontal,horizontal,horizontal,vertical,none
1c,5,100131,3,35,163,20,F,NA,variable,homogeneous,6,absent,0.720637083053589,1,horizontal,horizontal,1,0.776462459564209,red,4,NaN,831.076682568313,346.900731331463,NaN,NaN,768.923317431687,853.099268668537,1003.65205506206,753.462830903772,1034.72873763037,500.363562235235,831.076682568313,346.900731331463,596.34794493794,446.537169096228,565.271262369628,699.636437764765,0,0,0,4,0,0,vertical,vertical,horizontal,horizontal,horizontal,horizontal
1c,5,100131,3,36,164,20,F,NA,variable,homogeneous,3,present,0.77900505065918,1,vertical,vertical,1,0.98821741104126,green,3,2,546.39691668109,573.345241866748,949.885239334581,393.700666434388,903.717843984329,832.954091698863,949.885239334581,393.700666434388,546.39691668109,573.345241866748,0,0,0,0,0,0,0,0,4,NaN,NaN,NaN,vertical,horizontal,vertical,none,none,none
1c,5,100131,3,37,165,20,F,NA,variable,homogeneous,4,absent,0.753568887710571,1,horizontal,horizontal,1,0.741169967651367,red,2,NaN,995.341332995339,436.089159529932,NaN,NaN,963.910840470068,795.341332995339,995.341332995339,436.089159529932,636.089159529932,404.658667004661,604.658667004661,763.910840470068,0,0,0,0,0,4,0,0,NaN,NaN,vertical,horizontal,vertical,horizontal,none,none
1c,5,100131,3,38,166,20,F,NA,variable,homogeneous,4,present,0.70288610458374,1,horizontal,horizontal,1,0.694113311767578,green,1,4,808.899371659138,854.844660889869,545.155339110131,608.899371659138,808.899371659138,854.844660889869,1054.84466088987,591.100628340862,791.100628340862,345.155339110131,545.155339110131,608.899371659138,0,0,0,0,4,0,0,0,NaN,NaN,horizontal,horizontal,horizontal,vertical,none,none
1c,5,100131,3,39,167,20,F,NA,variable,homogeneous,4,present,0.993438959121704,1,horizontal,horizontal,1,1.03527406692505,green,1,4,661.117046071168,813.860994826083,586.139005173917,461.117046071168,661.117046071168,813.860994826083,1013.86099482608,738.882953928832,938.882953928832,386.139005173917,586.139005173917,461.117046071168,0,0,0,0,4,0,0,0,NaN,NaN,horizontal,horizontal,vertical,horizontal,none,none
1c,5,100131,3,40,168,20,F,NA,variable,homogeneous,3,present,0.679172992706299,1,vertical,vertical,1,0.658820819854736,green,1,2,861.690083377915,847.425410200379,983.431649086356,422.862115532956,861.690083377915,847.425410200379,983.431649086356,422.862115532956,554.878267535729,529.712474266665,0,0,0,0,0,0,4,0,0,NaN,NaN,NaN,vertical,vertical,vertical,none,none,none
1c,5,100131,3,41,169,20,F,NA,variable,homogeneous,4,present,0.678564786911011,1,horizontal,horizontal,1,0.694113311767578,red,2,1,1039.62161830041,687.215136548046,712.784863451954,839.621618300407,712.784863451954,839.621618300407,1039.62161830041,687.215136548046,887.215136548046,360.378381699593,560.378381699593,512.784863451954,0,0,0,0,0,4,0,0,NaN,NaN,horizontal,horizontal,vertical,vertical,none,none
1c,5,100131,3,42,170,20,F,NA,variable,homogeneous,3,absent,0.566708087921143,1,vertical,vertical,1,0.917632427215576,red,2,NaN,967.295052392579,407.549057043193,NaN,NaN,883.019879386575,841.107236777826,967.295052392579,407.549057043193,549.685068220846,551.343706178981,0,0,0,0,0,0,0,4,0,NaN,NaN,NaN,horizontal,vertical,vertical,none,none,none
1c,5,100131,3,43,171,20,F,NA,variable,homogeneous,6,present,0.679536104202271,1,vertical,vertical,1,0.670584983825684,green,5,4,610.498069503264,429.371695378491,853.017481158529,350.57236181288,746.982518841471,849.42763818712,989.501930496736,770.628304621509,1042.51941165526,521.200666434388,853.017481158529,350.57236181288,610.498069503264,429.371695378491,557.480588344736,678.799333565612,0,0,0,0,4,0,horizontal,horizontal,horizontal,vertical,vertical,vertical
1c,5,100131,3,44,172,20,F,NA,variable,homogeneous,3,present,0.549705982208252,1,vertical,vertical,1,0.823519115447998,red,3,2,746.982518841471,350.57236181288,1042.51941165526,678.799333565612,610.498069503264,770.628304621509,1042.51941165526,678.799333565612,746.982518841471,350.57236181288,0,0,0,0,0,0,0,0,4,NaN,NaN,NaN,horizontal,horizontal,vertical,none,none,none
1c,5,100131,3,45,173,20,F,NA,variable,homogeneous,6,present,0.690897941589355,1,vertical,vertical,1,0.905868263244629,red,2,6,967.295052392579,792.450942956807,549.685068220846,648.656293821019,716.980120613425,841.107236777826,967.295052392579,792.450942956807,1050.31493177915,551.343706178981,883.019879386575,358.892763222174,632.704947607421,407.549057043193,549.685068220846,648.656293821019,0,4,0,0,0,0,horizontal,vertical,vertical,vertical,vertical,vertical
1c,5,100131,3,46,174,20,F,NA,variable,homogeneous,5,present,0.596358060836792,1,vertical,vertical,1,0.776462459564209,green,3,4,883.019879386575,358.892763222174,596.34794493794,446.537169096228,874.554784704298,843.857712770574,1054.96116226488,604.450363641507,883.019879386575,358.892763222174,596.34794493794,446.537169096228,591.116228706307,746.261991269517,0,0,0,0,4,0,0,NaN,horizontal,vertical,vertical,horizontal,horizontal,none
1c,5,100131,3,47,175,20,F,NA,variable,homogeneous,3,absent,0.569061994552612,1,vertical,vertical,1,0.835283279418945,red,2,NaN,1051.86052685176,639.890788585259,NaN,NaN,639.523300282292,798.172220171528,1051.86052685176,639.890788585259,708.616172865948,361.936991243214,0,0,0,0,0,0,0,4,0,NaN,NaN,NaN,horizontal,vertical,horizontal,none,none,none
1c,5,100131,3,48,176,20,F,NA,variable,homogeneous,3,absent,0.775306940078735,1,horizontal,horizontal,1,0.929396591186523,red,1,NaN,956.993676208043,800.942742169714,NaN,NaN,956.993676208043,800.942742169714,895.524681321058,363.568117085469,547.481642470899,635.489140744817,0,0,0,0,0,0,4,0,0,NaN,NaN,NaN,horizontal,horizontal,vertical,none,none,none
1c,5,100131,3,49,177,20,F,NA,variable,homogeneous,3,absent,0.557852983474731,0,vertical,horizontal,1,0.741169967651367,green,1,NaN,751.343706178981,850.314931779154,NaN,NaN,751.343706178981,850.314931779154,1041.10723677783,516.980120613425,607.549057043193,432.704947607421,0,0,0,0,0,0,4,0,0,NaN,NaN,NaN,vertical,vertical,horizontal,none,none,none
1c,5,100131,3,50,178,20,F,NA,variable,homogeneous,4,present,0.751725912094116,1,vertical,vertical,1,0.72940580368042,red,4,1,588.595418998464,742.594190385041,942.594190385041,811.404581001536,942.594190385041,811.404581001536,1011.40458100154,457.40580961496,657.405809614959,388.595418998464,588.595418998464,742.594190385041,0,0,0,0,0,0,0,4,NaN,NaN,horizontal,vertical,horizontal,vertical,none,none
1c,5,100131,3,51,179,20,F,NA,variable,homogeneous,4,present,0.502381086349487,1,vertical,vertical,1,0.764698295593262,red,4,3,613.504806087112,773.909581815937,626.090418184063,413.504806087112,973.909581815937,786.495193912888,986.495193912888,426.090418184063,626.090418184063,413.504806087112,613.504806087112,773.909581815937,0,0,0,0,0,0,0,4,NaN,NaN,horizontal,vertical,horizontal,vertical,none,none
1c,5,100131,3,52,180,20,F,NA,variable,homogeneous,3,absent,0.624336957931519,1,horizontal,horizontal,1,0.98821741104126,green,1,NaN,983.431649086356,777.137884467044,NaN,NaN,983.431649086356,777.137884467044,861.690083377915,352.574589799621,554.878267535729,670.287525733335,0,0,0,0,0,0,4,0,0,NaN,NaN,NaN,horizontal,horizontal,vertical,none,none,none
1c,5,100131,3,53,181,20,F,NA,variable,homogeneous,6,present,0.604873895645142,1,horizontal,horizontal,1,0.999981575012207,green,1,6,903.717843984329,832.954091698863,650.114760665419,806.299333565612,903.717843984329,832.954091698863,1053.60308331891,626.654758133252,949.885239334581,393.700666434388,696.282156015671,367.045908301137,546.39691668109,573.345241866748,650.114760665419,806.299333565612,4,0,0,0,0,0,horizontal,vertical,horizontal,horizontal,horizontal,horizontal
1c,5,100131,3,54,182,20,F,NA,variable,homogeneous,6,present,0.614367008209229,1,vertical,vertical,1,1.05880239486694,green,3,2,942.594190385041,388.595418998464,1054.37883281626,617.787900804752,911.784642431215,829.192481806288,1054.37883281626,617.787900804752,942.594190385041,388.595418998464,688.215357568785,370.807518193712,545.621167183745,582.212099195248,657.405809614959,811.404581001536,0,0,4,0,0,0,horizontal,horizontal,vertical,horizontal,vertical,horizontal
1c,5,100131,3,55,183,20,F,NA,variable,homogeneous,5,present,0.647265911102295,1,vertical,vertical,1,1.0235099029541,red,1,4,927.5,820.836477965032,567.045908301137,496.282156015671,927.5,820.836477965032,1049.42763818712,546.982518841471,826.654758133252,346.39691668109,567.045908301137,496.282156015671,629.371695378491,789.501930496736,0,0,4,0,0,0,0,NaN,vertical,horizontal,horizontal,vertical,horizontal,none
1c,5,100131,3,56,184,20,F,NA,variable,homogeneous,5,absent,0.679597139358521,1,vertical,vertical,1,0.941160755157471,green,2,NaN,1054.96116226488,595.549636358493,NaN,NaN,883.019879386575,841.107236777826,1054.96116226488,595.549636358493,874.554784704298,356.142287229426,591.116228706307,453.738008730483,596.34794493794,753.462830903772,0,0,0,4,0,0,0,NaN,horizontal,vertical,vertical,vertical,horizontal,none
1c,5,100131,3,57,185,20,F,NA,variable,homogeneous,3,present,0.592881917953491,1,horizontal,horizontal,1,0.98821741104126,red,3,1,557.480588344736,678.799333565612,989.501930496736,770.628304621509,989.501930496736,770.628304621509,853.017481158529,350.57236181288,557.480588344736,678.799333565612,0,0,0,0,0,0,0,0,4,NaN,NaN,NaN,horizontal,vertical,horizontal,none,none,none
1c,5,100131,3,58,186,20,F,NA,variable,homogeneous,6,present,0.708201885223389,1,horizontal,horizontal,1,0.964689083099365,red,5,6,591.116228706307,453.738008730483,568.891514305654,707.767656743878,777.775285599347,854.029648013395,1008.88377129369,746.261991269517,1031.10848569435,492.232343256122,822.224714400653,345.970351986605,591.116228706307,453.738008730483,568.891514305654,707.767656743878,0,0,0,0,4,0,vertical,horizontal,horizontal,horizontal,horizontal,vertical
1c,5,100131,3,59,187,20,F,NA,variable,homogeneous,4,absent,0.764588117599487,1,vertical,vertical,1,0.905868263244629,green,1,NaN,963.910840470068,795.341332995339,NaN,NaN,963.910840470068,795.341332995339,995.341332995339,436.089159529932,636.089159529932,404.658667004661,604.658667004661,763.910840470068,0,0,0,0,4,0,0,0,NaN,NaN,vertical,horizontal,horizontal,vertical,none,none
1c,5,100131,3,60,188,20,F,NA,variable,homogeneous,3,absent,0.491637945175171,1,vertical,vertical,1,0.952924919128418,green,3,NaN,599.057257830286,443.006323791957,NaN,NaN,764.510859255183,852.518357529101,1036.43188291453,504.475318678942,599.057257830286,443.006323791957,0,0,0,0,0,0,0,0,4,NaN,NaN,NaN,vertical,vertical,vertical,none,none,none
1c,5,100131,3,61,189,20,F,NA,variable,homogeneous,4,absent,0.644012928009033,1,horizontal,horizontal,1,0.72940580368042,green,3,NaN,973.909581815937,413.504806087112,NaN,NaN,626.090418184063,786.495193912888,986.495193912888,773.909581815937,973.909581815937,413.504806087112,613.504806087112,426.090418184063,0,0,0,0,0,0,4,0,NaN,NaN,horizontal,vertical,horizontal,vertical,none,none
1c,5,100131,3,62,190,20,F,NA,variable,homogeneous,4,absent,0.581287860870361,1,horizontal,horizontal,1,0.823519115447998,red,2,NaN,1051.12597701811,644.280285305067,NaN,NaN,755.719714694933,851.125977018113,1051.12597701811,644.280285305067,844.280285305067,348.874022981887,548.874022981887,555.719714694933,0,0,0,0,0,4,0,0,NaN,NaN,vertical,horizontal,vertical,horizontal,none,none
1c,5,100131,3,63,191,20,F,NA,variable,homogeneous,3,present,0.724691152572632,1,horizontal,horizontal,1,0.964689083099365,green,1,3,891.383827134052,838.063008756786,548.13947314824,560.109211414741,891.383827134052,838.063008756786,960.476699717708,401.827779828472,548.13947314824,560.109211414741,0,0,0,0,0,0,4,0,0,NaN,NaN,NaN,horizontal,horizontal,vertical,none,none,none
1c,5,100131,3,64,192,20,F,NA,variable,homogeneous,5,absent,0.60945200920105,1,vertical,vertical,1,0.905868263244629,green,2,NaN,1054.37883281626,617.787900804752,NaN,NaN,861.690083377915,847.425410200379,1054.37883281626,617.787900804752,895.524681321058,363.568117085469,604.658667004661,436.089159529932,583.747735480111,735.129412379467,0,0,0,4,0,0,0,NaN,vertical,vertical,vertical,vertical,vertical,none
1c,5,100131,4,1,193,20,F,NA,variable,homogeneous,3,present,0.598117113113403,1,horizontal,horizontal,1,0.976453247070312,green,1,3,616.568350913644,777.137884467044,738.309916622085,352.574589799621,616.568350913644,777.137884467044,1045.12173246427,670.287525733335,738.309916622085,352.574589799621,0,0,0,0,0,0,4,0,0,NaN,NaN,NaN,horizontal,horizontal,horizontal,none,none,none
1c,5,100131,4,2,194,20,F,NA,variable,homogeneous,4,absent,0.631474018096924,1,horizontal,horizontal,1,1.047038230896,red,3,NaN,653.738008730483,391.116228706307,NaN,NaN,946.261991269517,808.883771293693,1008.88377129369,453.738008730483,653.738008730483,391.116228706307,591.116228706307,746.261991269517,0,0,0,0,0,0,4,0,NaN,NaN,vertical,vertical,horizontal,horizontal,none,none
1c,5,100131,4,3,195,20,F,NA,variable,homogeneous,3,absent,0.563127040863037,1,horizontal,horizontal,1,0.952924919128418,red,1,NaN,708.616172865948,838.063008756786,NaN,NaN,708.616172865948,838.063008756786,1051.86052685176,560.109211414741,639.523300282292,401.827779828472,0,0,0,0,0,0,4,0,0,NaN,NaN,NaN,horizontal,horizontal,vertical,none,none,none
1c,5,100131,4,4,196,20,F,NA,variable,homogeneous,3,present,0.528979063034058,1,horizontal,horizontal,1,0.717641639709473,red,2,3,1054.96116226488,604.450363641507,676.373546837184,376.971974679454,668.665290897936,818.577661679039,1054.96116226488,604.450363641507,676.373546837184,376.971974679454,0,0,0,0,0,0,0,4,0,NaN,NaN,NaN,horizontal,horizontal,vertical,none,none,none
1c,5,100131,4,5,197,20,F,NA,variable,homogeneous,6,absent,0.537231922149658,1,horizontal,horizontal,1,1.08233072280884,red,4,NaN,800,345,NaN,NaN,800,855,1020.83647796503,727.5,1020.83647796503,472.5,800,345,579.163522034968,472.5,579.163522034968,727.5,0,0,0,4,0,0,vertical,vertical,horizontal,horizontal,horizontal,horizontal
1c,5,100131,4,6,198,20,F,NA,variable,homogeneous,6,absent,0.602183818817139,1,vertical,vertical,1,0.705877475738525,red,2,NaN,1052.5183575291,635.489140744817,NaN,NaN,895.524681321058,836.431882914531,1052.5183575291,635.489140744817,956.993676208043,399.057257830286,704.475318678942,363.568117085469,547.481642470899,564.510859255183,643.006323791957,800.942742169714,0,4,0,0,0,0,horizontal,vertical,vertical,vertical,vertical,vertical
1c,5,100131,4,7,199,20,F,NA,variable,homogeneous,4,absent,0.607462167739868,1,horizontal,horizontal,1,1.047038230896,green,1,NaN,839.890788585259,851.86052685176,NaN,NaN,839.890788585259,851.86052685176,1051.86052685176,560.109211414741,760.109211414741,348.13947314824,548.13947314824,639.890788585259,0,0,0,0,4,0,0,0,NaN,NaN,horizontal,vertical,vertical,horizontal,none,none
1c,5,100131,4,8,200,20,F,NA,variable,homogeneous,4,absent,0.785767078399658,1,vertical,vertical,1,0.905868263244629,green,4,NaN,604.658667004661,763.910840470068,NaN,NaN,963.910840470068,795.341332995339,995.341332995339,436.089159529932,636.089159529932,404.658667004661,604.658667004661,763.910840470068,0,0,0,0,0,0,0,4,NaN,NaN,horizontal,horizontal,horizontal,vertical,none,none
1c,5,100131,4,9,201,20,F,NA,variable,homogeneous,6,present,0.703946113586426,1,horizontal,horizontal,1,0.717641639709473,red,2,5,1046.31108570371,665.998856501143,553.688914296288,534.001143498857,865.998856501143,846.311085703712,1046.31108570371,665.998856501143,980.31222920257,419.68777079743,734.001143498857,353.688914296288,553.688914296288,534.001143498857,619.68777079743,780.31222920257,0,4,0,0,0,0,vertical,horizontal,vertical,vertical,vertical,vertical
1c,5,100131,4,10,202,20,F,NA,variable,homogeneous,4,present,0.807170152664185,1,vertical,vertical,1,1.047038230896,green,4,3,610.498069503264,429.371695378491,970.628304621509,410.498069503264,629.371695378491,789.501930496736,989.501930496736,770.628304621509,970.628304621509,410.498069503264,610.498069503264,429.371695378491,0,0,0,0,0,0,0,4,NaN,NaN,vertical,horizontal,horizontal,vertical,none,none
1c,5,100131,4,11,203,20,F,NA,variable,homogeneous,3,absent,0.595352172851562,1,vertical,vertical,1,0.6,green,2,NaN,967.295052392579,407.549057043193,NaN,NaN,883.019879386575,841.107236777826,967.295052392579,407.549057043193,549.685068220846,551.343706178981,0,0,0,0,0,0,0,4,0,NaN,NaN,NaN,vertical,vertical,vertical,none,none,none
1c,5,100131,4,12,204,20,F,NA,variable,homogeneous,4,absent,0.619711875915527,1,vertical,vertical,1,1.0235099029541,red,2,NaN,1053.60308331891,573.345241866748,NaN,NaN,826.654758133252,853.60308331891,1053.60308331891,573.345241866748,773.345241866748,346.39691668109,546.39691668109,626.654758133252,0,0,0,0,0,4,0,0,NaN,NaN,vertical,vertical,horizontal,horizontal,none,none
1c,5,100131,4,13,205,20,F,NA,variable,homogeneous,5,absent,0.559648990631104,1,horizontal,horizontal,1,0.764698295593262,green,3,NaN,1042.51941165526,521.200666434388,NaN,NaN,650.114760665419,806.299333565612,949.885239334581,806.299333565612,1042.51941165526,521.200666434388,800,345,557.480588344736,521.200666434388,0,0,0,0,4,0,0,NaN,vertical,vertical,horizontal,vertical,vertical,none
1c,5,100131,4,14,206,20,F,NA,variable,homogeneous,6,present,0.762668132781982,1,vertical,vertical,1,0.976453247070312,green,2,4,1036.43188291453,695.524681321058,764.510859255183,347.4816424709,835.489140744817,852.518357529101,1036.43188291453,695.524681321058,1000.94274216971,443.006323791957,764.510859255183,347.4816424709,563.568117085469,504.475318678942,599.057257830286,756.993676208043,0,4,0,0,0,0,horizontal,vertical,vertical,vertical,vertical,vertical
1c,5,100131,4,15,207,20,F,NA,variable,homogeneous,4,present,0.627127170562744,1,horizontal,horizontal,1,0.85881160736084,red,4,1,619.68777079743,780.31222920257,980.31222920257,780.31222920257,980.31222920257,780.31222920257,980.31222920257,419.68777079743,619.68777079743,419.68777079743,619.68777079743,780.31222920257,0,0,0,0,0,0,0,4,NaN,NaN,horizontal,vertical,horizontal,horizontal,none,none
1c,5,100131,4,16,208,20,F,NA,variable,homogeneous,3,absent,0.513664960861206,1,horizontal,horizontal,1,1.09409488677979,green,3,NaN,568.891514305654,707.767656743878,NaN,NaN,1008.88377129369,746.261991269517,822.224714400653,345.970351986605,568.891514305654,707.767656743878,0,0,0,0,0,0,0,0,4,NaN,NaN,NaN,vertical,horizontal,horizontal,none,none,none
1c,5,100131,4,17,209,20,F,NA,variable,homogeneous,3,present,0.73773193359375,1,vertical,vertical,1,1.08233072280884,green,3,2,593.700666434388,450.114760665419,1032.95409169886,496.282156015671,773.345241866748,853.60308331891,1032.95409169886,496.282156015671,593.700666434388,450.114760665419,0,0,0,0,0,0,0,0,4,NaN,NaN,NaN,horizontal,horizontal,vertical,none,none,none
1c,5,100131,4,18,210,20,F,NA,variable,homogeneous,5,present,0.861958026885986,1,horizontal,horizontal,1,0.670584983825684,green,1,4,800,855,650.114760665419,393.700666434388,800,855,1042.51941165526,678.799333565612,949.885239334581,393.700666434388,650.114760665419,393.700666434388,557.480588344736,678.799333565612,0,0,4,0,0,0,0,NaN,horizontal,vertical,vertical,vertical,horizontal,none
1c,5,100131,4,19,211,20,F,NA,variable,homogeneous,5,absent,0.680350065231323,1,vertical,vertical,1,0.847047443389893,red,3,NaN,826.654758133252,346.39691668109,NaN,NaN,927.5,820.836477965032,1049.42763818712,546.982518841471,826.654758133252,346.39691668109,567.045908301137,496.282156015671,629.371695378491,789.501930496736,0,0,0,0,4,0,0,NaN,horizontal,vertical,vertical,horizontal,vertical,none
1c,5,100131,4,20,212,20,F,NA,variable,homogeneous,4,present,0.795840978622437,1,vertical,vertical,1,0.882339935302734,red,1,3,712.784863451954,839.621618300407,887.215136548046,360.378381699593,712.784863451954,839.621618300407,1039.62161830041,687.215136548046,887.215136548046,360.378381699593,560.378381699593,512.784863451954,0,0,0,0,4,0,0,0,NaN,NaN,vertical,horizontal,horizontal,horizontal,none,none
1c,5,100131,4,21,213,20,F,NA,variable,homogeneous,6,absent,0.636578798294067,1,horizontal,horizontal,1,0.847047443389893,red,5,NaN,613.504806087112,426.090418184063,NaN,NaN,742.637481142314,848.464366520235,986.495193912888,773.909581815937,1043.85771277057,525.445215295702,857.362518857686,351.535633479765,613.504806087112,426.090418184063,556.142287229426,674.554784704298,0,0,0,0,4,0,vertical,horizontal,horizontal,vertical,horizontal,horizontal
1c,5,100131,4,22,214,20,F,NA,variable,homogeneous,4,present,0.573698997497559,1,horizontal,horizontal,1,0.999981575012207,red,1,3,839.890788585259,851.86052685176,760.109211414741,348.13947314824,839.890788585259,851.86052685176,1051.86052685176,560.109211414741,760.109211414741,348.13947314824,548.13947314824,639.890788585259,0,0,0,0,4,0,0,0,NaN,NaN,horizontal,horizontal,horizontal,vertical,none,none
1c,5,100131,4,23,215,20,F,NA,variable,homogeneous,3,absent,0.597887992858887,1,horizontal,horizontal,1,0.647056655883789,green,3,NaN,676.373546837184,376.971974679454,NaN,NaN,668.665290897936,818.577661679039,1054.96116226488,604.450363641507,676.373546837184,376.971974679454,0,0,0,0,0,0,0,0,4,NaN,NaN,NaN,horizontal,vertical,horizontal,none,none,none
1c,5,100131,4,24,216,20,F,NA,variable,homogeneous,4,absent,0.855670928955078,1,horizontal,horizontal,1,0.870575771331787,green,4,NaN,560.378381699593,512.784863451954,NaN,NaN,712.784863451954,839.621618300407,1039.62161830041,687.215136548046,887.215136548046,360.378381699593,560.378381699593,512.784863451954,0,0,0,0,0,0,0,4,NaN,NaN,vertical,horizontal,horizontal,horizontal,none,none
1c,5,100131,4,25,217,20,F,NA,variable,homogeneous,4,present,0.607633113861084,1,horizontal,horizontal,1,0.941160755157471,green,4,1,548.874022981887,555.719714694933,755.719714694933,851.125977018113,755.719714694933,851.125977018113,1051.12597701811,644.280285305067,844.280285305067,348.874022981887,548.874022981887,555.719714694933,0,0,0,0,0,0,0,4,NaN,NaN,vertical,horizontal,horizontal,horizontal,none,none
1c,5,100131,4,26,218,20,F,NA,variable,homogeneous,4,present,0.815704822540283,1,vertical,vertical,1,0.98821741104126,green,3,4,865.998856501143,353.688914296288,553.688914296288,534.001143498857,734.001143498857,846.311085703712,1046.31108570371,665.998856501143,865.998856501143,353.688914296288,553.688914296288,534.001143498857,0,0,0,0,0,0,4,0,NaN,NaN,horizontal,vertical,vertical,vertical,none,none
1c,5,100131,4,27,219,20,F,NA,variable,homogeneous,4,present,0.872918128967285,1,vertical,vertical,1,0.847047443389893,red,1,4,911.784642431215,829.192481806288,570.807518193712,711.784642431215,911.784642431215,829.192481806288,1029.19248180629,488.215357568785,688.215357568785,370.807518193712,570.807518193712,711.784642431215,0,0,0,0,4,0,0,0,NaN,NaN,vertical,horizontal,horizontal,vertical,none,none
1c,5,100131,4,28,220,20,F,NA,variable,homogeneous,3,present,0.620760917663574,1,vertical,vertical,1,0.905868263244629,red,3,1,729.712474266665,354.878267535729,622.862115532956,783.431649086356,622.862115532956,783.431649086356,1047.42541020038,661.690083377915,729.712474266665,354.878267535729,0,0,0,0,0,0,0,0,4,NaN,NaN,NaN,horizontal,horizontal,vertical,none,none,none
1c,5,100131,4,29,221,20,F,NA,variable,homogeneous,4,present,0.841336011886597,1,horizontal,horizontal,1,1.01174573898315,green,3,4,977.137884467044,416.568350913644,616.568350913644,422.862115532956,622.862115532956,783.431649086356,983.431649086356,777.137884467044,977.137884467044,416.568350913644,616.568350913644,422.862115532956,0,0,0,0,0,0,4,0,NaN,NaN,vertical,vertical,horizontal,vertical,none,none
1c,5,100131,4,30,222,20,F,NA,variable,homogeneous,4,absent,0.707653999328613,1,vertical,vertical,1,0.647056655883789,red,3,NaN,887.215136548046,360.378381699593,NaN,NaN,712.784863451954,839.621618300407,1039.62161830041,687.215136548046,887.215136548046,360.378381699593,560.378381699593,512.784863451954,0,0,0,0,0,0,4,0,NaN,NaN,horizontal,horizontal,vertical,vertical,none,none
1c,5,100131,4,31,223,20,F,NA,variable,homogeneous,6,present,0.629929065704346,1,vertical,vertical,1,0.799990787506104,red,6,2,558.892763222174,683.019879386575,992.450942956807,767.295052392579,751.343706178981,850.314931779154,992.450942956807,767.295052392579,1041.10723677783,516.980120613425,848.656293821019,349.685068220846,607.549057043193,432.704947607421,558.892763222174,683.019879386575,0,0,0,0,0,4,vertical,horizontal,horizontal,vertical,vertical,vertical
1c,5,100131,4,32,224,20,F,NA,variable,homogeneous,5,absent,0.944386005401611,1,vertical,vertical,1,0.682349147796631,red,5,NaN,548.13947314824,560.109211414741,NaN,NaN,684.232422566416,827.206663668034,980.31222920257,780.31222920257,1027.20666366803,484.232422566416,760.109211414741,348.13947314824,548.13947314824,560.109211414741,0,0,0,0,0,0,4,NaN,vertical,vertical,horizontal,horizontal,vertical,none
1c,5,100131,4,33,225,20,F,NA,variable,homogeneous,4,absent,0.608903884887695,1,vertical,vertical,1,0.870575771331787,green,3,NaN,712.784863451954,360.378381699593,NaN,NaN,887.215136548046,839.621618300407,1039.62161830041,512.784863451954,712.784863451954,360.378381699593,560.378381699593,687.215136548046,0,0,0,0,0,0,4,0,NaN,NaN,horizontal,horizontal,vertical,horizontal,none,none
1c,5,100131,4,34,226,20,F,NA,variable,homogeneous,5,present,0.664037942886353,1,vertical,vertical,1,0.741169967651367,green,2,1,1049.42763818712,546.982518841471,927.5,820.836477965032,927.5,820.836477965032,1049.42763818712,546.982518841471,826.654758133252,346.39691668109,567.045908301137,496.282156015671,629.371695378491,789.501930496736,0,0,0,4,0,0,0,NaN,horizontal,vertical,horizontal,vertical,horizontal,none
1c,5,100131,4,35,227,20,F,NA,variable,homogeneous,3,absent,0.552086114883423,0,horizontal,vertical,1,0.929396591186523,red,2,NaN,1025.15163617903,480.284751489598,NaN,NaN,791.100628340862,854.844660889869,1025.15163617903,480.284751489598,583.747735480111,464.870587620533,0,0,0,0,0,0,0,4,0,NaN,NaN,NaN,vertical,horizontal,vertical,none,none,none
1c,5,100131,4,36,228,20,F,NA,variable,homogeneous,3,present,0.690412044525146,1,horizontal,horizontal,1,0.752934131622314,red,2,1,1050.31493177915,648.656293821019,632.704947607421,792.450942956807,632.704947607421,792.450942956807,1050.31493177915,648.656293821019,716.980120613425,358.892763222174,0,0,0,0,0,0,0,4,0,NaN,NaN,NaN,vertical,horizontal,horizontal,none,none,none
1c,5,100131,4,37,229,20,F,NA,variable,homogeneous,3,absent,0.669283866882324,1,vertical,vertical,1,0.847047443389893,red,1,NaN,963.910840470068,795.341332995339,NaN,NaN,963.910840470068,795.341332995339,887.215136548046,360.378381699593,548.874022981887,644.280285305067,0,0,0,0,0,0,4,0,0,NaN,NaN,NaN,vertical,vertical,vertical,none,none,none
1c,5,100131,4,38,230,20,F,NA,variable,homogeneous,6,present,0.674072980880737,1,horizontal,horizontal,1,0.752934131622314,red,4,3,861.690083377915,352.574589799621,1045.12173246427,529.712474266665,738.309916622085,847.425410200379,983.431649086356,777.137884467044,1045.12173246427,529.712474266665,861.690083377915,352.574589799621,616.568350913644,422.862115532956,554.878267535729,670.287525733335,0,0,0,4,0,0,horizontal,vertical,horizontal,horizontal,vertical,vertical
1c,5,100131,4,39,231,20,F,NA,variable,homogeneous,5,present,0.817527055740356,1,vertical,vertical,1,1.09409488677979,green,2,4,1025.15163617903,719.715248510402,688.215357568785,370.807518193712,755.719714694933,851.125977018113,1025.15163617903,719.715248510402,983.431649086356,422.862115532956,688.215357568785,370.807518193712,547.481642470899,635.489140744817,0,0,0,4,0,0,0,NaN,horizontal,vertical,vertical,horizontal,horizontal,none
1c,5,100131,4,40,232,20,F,NA,variable,homogeneous,3,present,0.644634962081909,1,vertical,vertical,1,0.917632427215576,green,1,3,800,855,579.163522034968,472.5,800,855,1020.83647796503,472.5,579.163522034968,472.5,0,0,0,0,0,0,4,0,0,NaN,NaN,NaN,vertical,vertical,horizontal,none,none,none
1c,5,100131,4,41,233,20,F,NA,variable,homogeneous,3,absent,0.561726093292236,1,vertical,vertical,1,0.811754951477051,red,2,NaN,915.767577433584,372.793336331966,NaN,NaN,938.882953928832,813.860994826083,915.767577433584,372.793336331966,545.349468637584,613.345668841951,0,0,0,0,0,0,0,4,0,NaN,NaN,NaN,vertical,vertical,vertical,none,none,none
1c,5,100131,4,42,234,20,F,NA,variable,homogeneous,6,absent,0.918817043304443,1,vertical,vertical,1,1.09409488677979,green,1,NaN,927.5,820.836477965032,NaN,NaN,927.5,820.836477965032,1055,600,927.5,379.163522034968,672.5,379.163522034968,545,600,672.5,820.836477965032,4,0,0,0,0,0,vertical,horizontal,vertical,vertical,horizontal,vertical
1c,5,100131,4,43,235,20,F,NA,variable,homogeneous,5,present,0.677608013153076,1,horizontal,horizontal,1,0.799990787506104,green,3,2,953.462830903772,396.34794493794,1041.10723677783,683.019879386575,795.549636358493,854.96116226488,1041.10723677783,683.019879386575,953.462830903772,396.34794493794,653.738008730483,391.116228706307,556.142287229426,674.554784704298,0,0,0,0,4,0,0,NaN,vertical,vertical,horizontal,horizontal,vertical,none
1c,5,100131,4,44,236,20,F,NA,variable,homogeneous,6,absent,0.698705196380615,1,horizontal,horizontal,1,0.976453247070312,green,2,NaN,1018.57766167904,731.334709102064,NaN,NaN,795.549636358493,854.96116226488,1018.57766167904,731.334709102064,1023.02802532055,476.373546837184,804.450363641507,345.03883773512,581.422338320961,468.665290897936,576.971974679454,723.626453162816,0,4,0,0,0,0,vertical,horizontal,horizontal,horizontal,horizontal,horizontal
1c,5,100131,4,45,237,20,F,NA,variable,homogeneous,6,absent,0.512876033782959,1,horizontal,horizontal,1,0.999981575012207,green,5,NaN,646.537169096228,396.34794493794,NaN,NaN,700.363562235235,834.728737630372,953.462830903772,803.65205506206,1053.09926866854,568.923317431687,899.636437764765,365.271262369628,646.537169096228,396.34794493794,546.900731331463,631.076682568313,0,0,0,0,4,0,vertical,vertical,horizontal,horizontal,horizontal,vertical
1c,5,100131,4,46,238,20,F,NA,variable,homogeneous,5,absent,0.614456176757812,1,horizontal,horizontal,1,0.964689083099365,red,2,NaN,963.910840470068,795.341332995339,NaN,NaN,664.870587620533,816.252264519889,963.910840470068,795.341332995339,1036.43188291453,504.475318678942,782.212099195248,345.621167183745,552.574589799621,538.309916622085,0,0,0,4,0,0,0,NaN,horizontal,horizontal,horizontal,vertical,horizontal,none
1c,5,100131,4,47,239,20,F,NA,variable,homogeneous,5,present,0.587753772735596,1,vertical,vertical,1,1.03527406692505,red,3,4,813.345668841951,345.349468637584,561.936991243214,508.616172865948,938.882953928832,813.860994826083,1046.31108570371,534.001143498857,813.345668841951,345.349468637584,561.936991243214,508.616172865948,639.523300282292,798.172220171528,0,0,0,0,4,0,0,NaN,vertical,horizontal,vertical,vertical,vertical,none
1c,5,100131,4,48,240,20,F,NA,variable,homogeneous,3,present,0.76891016960144,1,horizontal,horizontal,1,0.658820819854736,green,2,1,1050.31493177915,551.343706178981,716.980120613425,841.107236777826,716.980120613425,841.107236777826,1050.31493177915,551.343706178981,632.704947607421,407.549057043193,0,0,0,0,0,0,0,4,0,NaN,NaN,NaN,horizontal,horizontal,vertical,none,none,none
1c,5,100131,4,49,241,20,F,NA,variable,homogeneous,6,absent,0.665991067886353,1,vertical,vertical,1,1.07056655883789,green,4,NaN,865.998856501143,353.688914296288,NaN,NaN,734.001143498857,846.311085703712,980.31222920257,780.31222920257,1046.31108570371,534.001143498857,865.998856501143,353.688914296288,619.68777079743,419.68777079743,553.688914296288,665.998856501143,0,0,0,4,0,0,vertical,vertical,horizontal,vertical,horizontal,vertical
1c,5,100131,4,50,242,20,F,NA,variable,homogeneous,6,present,0.752541065216064,1,vertical,vertical,1,0.85881160736084,green,2,5,1055,600,545,600,927.5,820.836477965032,1055,600,927.5,379.163522034968,672.5,379.163522034968,545,600,672.5,820.836477965032,0,4,0,0,0,0,vertical,vertical,horizontal,vertical,horizontal,horizontal
1c,5,100131,4,51,243,20,F,NA,variable,homogeneous,5,present,0.836385011672974,1,horizontal,horizontal,1,0.623528327941895,red,3,1,995.341332995339,436.089159529932,738.309916622085,847.425410200379,738.309916622085,847.425410200379,1016.25226451989,735.129412379467,995.341332995339,436.089159529932,704.475318678942,363.568117085469,545.621167183745,617.787900804752,0,0,0,0,4,0,0,NaN,vertical,horizontal,horizontal,horizontal,horizontal,none
1c,5,100131,4,52,244,20,F,NA,variable,homogeneous,3,absent,0.708707094192505,1,vertical,vertical,1,0.976453247070312,green,3,NaN,680.284751489598,374.848363820974,NaN,NaN,664.870587620533,816.252264519889,1054.84466088987,608.899371659138,680.284751489598,374.848363820974,0,0,0,0,0,0,0,0,4,NaN,NaN,NaN,horizontal,horizontal,vertical,none,none,none
1c,5,100131,4,53,245,20,F,NA,variable,homogeneous,4,absent,0.668195962905884,1,horizontal,horizontal,1,1.03527406692505,red,2,NaN,1046.31108570371,534.001143498857,NaN,NaN,865.998856501143,846.311085703712,1046.31108570371,534.001143498857,734.001143498857,353.688914296288,553.688914296288,665.998856501143,0,0,0,0,0,4,0,0,NaN,NaN,vertical,horizontal,vertical,horizontal,none,none
1c,5,100131,4,54,246,20,F,NA,variable,homogeneous,6,present,0.731213808059692,1,vertical,vertical,1,0.882339935302734,red,3,5,1038.06300875679,508.616172865948,601.827779828472,439.523300282291,760.109211414741,851.86052685176,998.172220171528,760.476699717708,1038.06300875679,508.616172865948,839.890788585259,348.13947314824,601.827779828472,439.523300282291,561.936991243214,691.383827134052,0,0,4,0,0,0,horizontal,horizontal,vertical,horizontal,horizontal,vertical
1c,5,100131,4,55,247,20,F,NA,variable,homogeneous,6,absent,0.662416934967041,1,vertical,vertical,1,1.0235099029541,red,6,NaN,545.349468637584,613.345668841951,NaN,NaN,684.232422566416,827.206663668034,938.882953928832,813.860994826083,1054.65053136242,586.654331158049,915.767577433584,372.793336331966,661.117046071168,386.139005173917,545.349468637584,613.345668841951,0,0,0,0,0,4,horizontal,vertical,vertical,vertical,horizontal,vertical
