experiment,subject,uniqueID,block,trial,trial_cumulative,age,gender,color_cond_blocking,color_history,shape_type,set_size,distractor,rt,acc,target_orient,response_key,response_made,iti,target_color,target_item,distractor_item,target_X,target_Y,distractor_X,distractor_Y,item1_X,item1_Y,item2_X,item2_Y,item3_X,item3_Y,item4_X,item4_Y,item5_X,item5_Y,item6_X,item6_Y,item1_shape,item2_shape,item3_shape,item4_shape,item5_shape,item6_shape,item1_line,item2_line,item3_line,item4_line,item5_line,item6_line
1c,6,100111,1,1,1,24,F,NA,variable,homogeneous,3,absent,0.669653177261353,0,horizontal,vertical,1,0.658824896812439,green,2,NaN,995.341332995339,436.089159529932,NaN,NaN,844.280285305067,851.125977018113,995.341332995339,436.089159529932,560.378381699593,512.784863451954,0,0,0,0,0,0,0,4,0,NaN,NaN,NaN,vertical,horizontal,vertical,none,none,none
1c,6,100111,1,2,2,24,F,NA,variable,homogeneous,4,absent,1.13040494918823,0,horizontal,vertical,1,0.776474690437317,red,2,NaN,1032.95409169886,703.717843984329,NaN,NaN,696.282156015671,832.954091698863,1032.95409169886,703.717843984329,903.717843984329,367.045908301137,567.045908301137,496.282156015671,0,0,0,0,0,4,0,0,NaN,NaN,horizontal,horizontal,vertical,horizontal,none,none
1c,6,100111,1,3,3,24,F,NA,variable,homogeneous,4,absent,1.5023078918457,1,horizontal,horizontal,1,0.647059917449951,green,1,NaN,721.200666434388,842.519411655264,NaN,NaN,721.200666434388,842.519411655264,1042.51941165526,678.799333565612,878.799333565612,357.480588344736,557.480588344736,521.200666434388,0,0,0,0,4,0,0,0,NaN,NaN,horizontal,vertical,vertical,vertical,none,none
1c,6,100111,1,4,4,24,F,NA,variable,homogeneous,6,absent,1.22130703926086,1,horizontal,horizontal,1,0.647059917449951,red,6,NaN,650.114760665419,806.299333565612,NaN,NaN,903.717843984329,832.954091698863,1053.60308331891,626.654758133252,949.885239334581,393.700666434388,696.282156015671,367.045908301137,546.39691668109,573.345241866748,650.114760665419,806.299333565612,0,0,0,0,0,4,horizontal,horizontal,vertical,horizontal,horizontal,horizontal
1c,6,100111,1,5,5,24,F,NA,variable,homogeneous,6,present,1.17922496795654,1,vertical,vertical,1,1.082364153862,red,3,6,1038.06300875679,508.616172865948,561.936991243214,691.383827134052,760.109211414741,851.86052685176,998.172220171528,760.476699717708,1038.06300875679,508.616172865948,839.890788585259,348.13947314824,601.827779828472,439.523300282291,561.936991243214,691.383827134052,0,0,4,0,0,0,vertical,horizontal,vertical,horizontal,vertical,vertical
1c,6,100111,1,6,6,24,F,NA,variable,homogeneous,3,absent,1.13758897781372,1,horizontal,horizontal,1,0.741179752349854,green,1,NaN,970.628304621509,789.501930496736,NaN,NaN,970.628304621509,789.501930496736,878.799333565612,357.480588344736,550.57236181288,653.017481158529,0,0,0,0,0,0,4,0,0,NaN,NaN,NaN,horizontal,vertical,horizontal,none,none,none
1c,6,100111,1,7,7,24,F,NA,variable,homogeneous,4,present,1.50638389587402,0,horizontal,vertical,1,1.082364153862,green,1,4,643.006323791957,800.942742169714,599.057257830286,443.006323791957,643.006323791957,800.942742169714,1000.94274216971,756.993676208043,956.993676208043,399.057257830286,599.057257830286,443.006323791957,0,0,0,0,4,0,0,0,NaN,NaN,horizontal,horizontal,horizontal,vertical,none,none
1c,6,100111,1,8,8,24,F,NA,variable,homogeneous,3,absent,1.25698804855347,1,vertical,vertical,1,0.611764979362488,red,3,NaN,734.001143498857,353.688914296288,NaN,NaN,619.68777079743,780.31222920257,1046.31108570371,665.998856501143,734.001143498857,353.688914296288,0,0,0,0,0,0,0,0,4,NaN,NaN,NaN,vertical,vertical,vertical,none,none,none
1c,6,100111,1,9,9,24,F,NA,variable,homogeneous,5,present,1.34895920753479,0,horizontal,vertical,1,0.929419422149658,green,2,5,1054.65053136242,586.654331158049,601.827779828472,760.476699717708,891.383827134052,838.063008756786,1054.65053136242,586.654331158049,865.998856501143,353.688914296288,586.139005173917,461.117046071168,601.827779828472,760.476699717708,0,0,0,4,0,0,0,NaN,vertical,horizontal,horizontal,horizontal,horizontal,none
1c,6,100111,1,10,10,24,F,NA,variable,homogeneous,5,absent,1.26410698890686,1,horizontal,horizontal,1,0.611764979362488,red,4,NaN,593.700666434388,450.114760665419,NaN,NaN,878.799333565612,842.519411655264,1055,600,878.799333565612,357.480588344736,593.700666434388,450.114760665419,593.700666434388,749.885239334581,0,0,0,0,0,4,0,NaN,horizontal,vertical,vertical,horizontal,vertical,none
1c,6,100111,1,11,11,24,F,NA,variable,homogeneous,3,absent,0.883004188537598,1,vertical,vertical,1,0.870594525337219,green,1,NaN,822.224714400653,854.029648013395,NaN,NaN,822.224714400653,854.029648013395,1008.88377129369,453.738008730483,568.891514305654,492.232343256122,0,0,0,0,0,0,4,0,0,NaN,NaN,NaN,vertical,vertical,vertical,none,none,none
1c,6,100111,1,12,12,24,F,NA,variable,homogeneous,6,absent,1.05017590522766,1,vertical,vertical,1,1.05883419513702,red,5,NaN,545.03883773512,595.549636358493,NaN,NaN,923.626453162816,823.028025320546,1054.96116226488,604.450363641507,931.334709102064,381.422338320961,676.373546837184,376.971974679454,545.03883773512,595.549636358493,668.665290897936,818.577661679039,0,0,0,0,4,0,vertical,vertical,horizontal,vertical,vertical,horizontal
1c,6,100111,1,13,13,24,F,NA,variable,homogeneous,5,present,1.15703582763672,1,vertical,vertical,1,0.682354855537414,green,2,1,960.476699717708,798.172220171528,661.117046071168,813.860994826083,661.117046071168,813.860994826083,960.476699717708,798.172220171528,1038.06300875679,508.616172865948,786.654331158049,345.349468637584,553.688914296288,534.001143498857,0,0,0,4,0,0,0,NaN,horizontal,vertical,horizontal,vertical,vertical,none
1c,6,100111,1,14,14,24,F,NA,variable,homogeneous,5,present,0.86393404006958,1,vertical,vertical,1,0.976479339599609,green,2,1,1048.46436652023,542.637481142314,931.334709102064,818.577661679039,931.334709102064,818.577661679039,1048.46436652023,542.637481142314,822.224714400653,345.970351986605,565.271262369628,500.363562235235,632.704947607421,792.450942956807,0,0,0,4,0,0,0,NaN,horizontal,vertical,horizontal,horizontal,vertical,none
1c,6,100111,1,15,15,24,F,NA,variable,homogeneous,3,present,0.923119068145752,1,horizontal,horizontal,1,1.09412913322449,red,1,3,596.34794493794,753.462830903772,768.923317431687,346.900731331463,596.34794493794,753.462830903772,1034.72873763037,699.636437764765,768.923317431687,346.900731331463,0,0,0,0,0,0,4,0,0,NaN,NaN,NaN,horizontal,vertical,horizontal,none,none,none
1c,6,100111,1,16,16,24,F,NA,variable,homogeneous,4,absent,0.969352960586548,1,vertical,vertical,1,0.776474690437317,green,3,NaN,857.362518857686,351.535633479765,NaN,NaN,742.637481142314,848.464366520235,1048.46436652023,657.362518857686,857.362518857686,351.535633479765,551.535633479765,542.637481142314,0,0,0,0,0,0,4,0,NaN,NaN,horizontal,horizontal,vertical,vertical,none,none
1c,6,100111,1,17,17,24,F,NA,variable,homogeneous,6,absent,0.982480049133301,1,vertical,vertical,1,0.882359504699707,green,4,NaN,676.373546837184,376.971974679454,NaN,NaN,923.626453162816,823.028025320546,1054.96116226488,604.450363641507,931.334709102064,381.422338320961,676.373546837184,376.971974679454,545.03883773512,595.549636358493,668.665290897936,818.577661679039,0,0,0,4,0,0,vertical,horizontal,vertical,vertical,horizontal,vertical
1c,6,100111,1,18,18,24,F,NA,variable,homogeneous,6,present,0.998262166976929,1,horizontal,horizontal,1,1.01177427768707,red,5,2,657.405809614959,388.595418998464,942.594190385041,811.404581001536,688.215357568785,829.192481806288,942.594190385041,811.404581001536,1054.37883281626,582.212099195248,911.784642431215,370.807518193712,657.405809614959,388.595418998464,545.621167183745,617.787900804752,0,0,0,0,4,0,horizontal,horizontal,vertical,horizontal,horizontal,horizontal
1c,6,100111,1,19,19,24,F,NA,variable,homogeneous,5,absent,0.79606294631958,1,horizontal,horizontal,1,1.07059917449951,green,4,NaN,636.089159529932,404.658667004661,NaN,NaN,817.787900804752,854.378832816255,1047.42541020038,661.690083377915,935.129412379467,383.747735480111,636.089159529932,404.658667004661,563.568117085469,695.524681321058,0,0,0,0,0,4,0,NaN,horizontal,horizontal,horizontal,horizontal,vertical,none
1c,6,100111,1,20,20,24,F,NA,variable,homogeneous,6,absent,NaN,0,horizontal,none,0,0.717649793624878,green,1,NaN,684.232422566416,827.206663668034,NaN,NaN,684.232422566416,827.206663668034,938.882953928832,813.860994826083,1054.65053136242,586.654331158049,915.767577433584,372.793336331966,661.117046071168,386.139005173917,545.349468637584,613.345668841951,4,0,0,0,0,0,horizontal,horizontal,horizontal,horizontal,horizontal,vertical
1c,6,100111,1,21,21,24,F,NA,variable,homogeneous,3,absent,1.2581570148468,1,horizontal,horizontal,1,0.952949380874634,red,2,NaN,1011.40458100154,457.40580961496,NaN,NaN,817.787900804752,854.378832816255,1011.40458100154,457.40580961496,570.807518193712,488.215357568785,0,0,0,0,0,0,0,4,0,NaN,NaN,NaN,horizontal,horizontal,vertical,none,none,none
1c,6,100111,1,22,22,24,F,NA,variable,homogeneous,5,present,0.77990984916687,1,horizontal,horizontal,1,1.02353925704956,red,2,1,1054.37883281626,617.787900804752,861.690083377915,847.425410200379,861.690083377915,847.425410200379,1054.37883281626,617.787900804752,895.524681321058,363.568117085469,604.658667004661,436.089159529932,583.747735480111,735.129412379467,0,0,0,4,0,0,0,NaN,vertical,horizontal,horizontal,horizontal,horizontal,none
1c,6,100111,1,23,23,24,F,NA,variable,homogeneous,3,present,0.76676607131958,1,vertical,vertical,1,0.952949380874634,red,2,3,1045.12173246427,670.287525733335,738.309916622085,352.574589799621,616.568350913644,777.137884467044,1045.12173246427,670.287525733335,738.309916622085,352.574589799621,0,0,0,0,0,0,0,4,0,NaN,NaN,NaN,horizontal,vertical,vertical,none,none,none
1c,6,100111,1,24,24,24,F,NA,variable,homogeneous,6,present,0.642145872116089,1,vertical,vertical,1,0.788239669799805,red,6,1,626.090418184063,786.495193912888,874.554784704298,843.857712770574,874.554784704298,843.857712770574,1048.46436652023,657.362518857686,973.909581815937,413.504806087112,725.445215295702,356.142287229426,551.535633479765,542.637481142314,626.090418184063,786.495193912888,0,0,0,0,0,4,vertical,horizontal,horizontal,vertical,vertical,vertical
1c,6,100111,1,25,25,24,F,NA,variable,homogeneous,5,absent,0.868426084518433,1,vertical,vertical,1,0.870594525337219,green,3,NaN,1011.40458100154,457.40580961496,NaN,NaN,712.784863451954,839.621618300407,1000.94274216971,756.993676208043,1011.40458100154,457.40580961496,729.712474266665,354.878267535729,545.155339110131,591.100628340862,0,0,0,0,4,0,0,NaN,vertical,horizontal,vertical,horizontal,horizontal,none
1c,6,100111,1,26,26,24,F,NA,variable,homogeneous,3,absent,0.794655084609985,1,vertical,vertical,1,1.03530423641205,green,3,NaN,795.549636358493,345.03883773512,NaN,NaN,581.422338320961,731.334709102064,1023.02802532055,723.626453162816,795.549636358493,345.03883773512,0,0,0,0,0,0,0,0,4,NaN,NaN,NaN,vertical,horizontal,vertical,none,none,none
1c,6,100111,1,27,27,24,F,NA,variable,homogeneous,3,absent,0.812644004821777,1,horizontal,horizontal,1,1.09412913322449,red,1,NaN,613.504806087112,773.909581815937,NaN,NaN,613.504806087112,773.909581815937,1043.85771277057,674.554784704298,742.637481142314,351.535633479765,0,0,0,0,0,0,4,0,0,NaN,NaN,NaN,horizontal,vertical,vertical,none,none,none
1c,6,100111,1,28,28,24,F,NA,variable,homogeneous,5,absent,0.690194845199585,1,horizontal,horizontal,1,0.858829545974731,red,4,NaN,558.892763222174,516.980120613425,NaN,NaN,946.261991269517,808.883771293693,1043.85771277057,525.445215295702,804.450363641507,345.03883773512,558.892763222174,516.980120613425,646.537169096228,803.65205506206,0,0,0,0,0,4,0,NaN,vertical,horizontal,horizontal,horizontal,horizontal,none
1c,6,100111,1,29,29,24,F,NA,variable,homogeneous,3,present,0.904115915298462,1,horizontal,horizontal,1,1.01177427768707,red,2,1,1052.5183575291,635.489140744817,643.006323791957,800.942742169714,643.006323791957,800.942742169714,1052.5183575291,635.489140744817,704.475318678942,363.568117085469,0,0,0,0,0,0,0,4,0,NaN,NaN,NaN,vertical,horizontal,horizontal,none,none,none
1c,6,100111,1,30,30,24,F,NA,variable,homogeneous,5,absent,1.17271113395691,1,vertical,vertical,1,0.694119834899902,red,5,NaN,604.658667004661,763.910840470068,NaN,NaN,895.524681321058,836.431882914531,1054.37883281626,582.212099195248,861.690083377915,352.574589799621,583.747735480111,464.870587620533,604.658667004661,763.910840470068,0,0,0,0,0,0,4,NaN,horizontal,vertical,vertical,horizontal,vertical,none
1c,6,100111,1,31,31,24,F,NA,variable,homogeneous,4,absent,0.662153005599976,1,horizontal,horizontal,1,0.894124484062195,red,4,NaN,588.595418998464,742.594190385041,NaN,NaN,942.594190385041,811.404581001536,1011.40458100154,457.40580961496,657.405809614959,388.595418998464,588.595418998464,742.594190385041,0,0,0,0,0,0,0,4,NaN,NaN,horizontal,vertical,vertical,horizontal,none,none
1c,6,100111,1,32,32,24,F,NA,variable,homogeneous,6,absent,1.06438994407654,1,vertical,vertical,1,0.847064566612244,green,4,NaN,704.475318678942,363.568117085469,NaN,NaN,895.524681321058,836.431882914531,1052.5183575291,635.489140744817,956.993676208043,399.057257830286,704.475318678942,363.568117085469,547.481642470899,564.510859255183,643.006323791957,800.942742169714,0,0,0,4,0,0,horizontal,horizontal,vertical,vertical,horizontal,horizontal
1c,6,100111,1,33,33,24,F,NA,variable,homogeneous,6,present,0.734690189361572,1,horizontal,horizontal,1,0.835299587249756,green,5,3,586.139005173917,461.117046071168,1027.20666366803,484.232422566416,786.654331158049,854.650531362416,1013.86099482608,738.882953928832,1027.20666366803,484.232422566416,813.345668841951,345.349468637584,586.139005173917,461.117046071168,572.793336331966,715.767577433584,0,0,0,0,4,0,horizontal,vertical,vertical,horizontal,horizontal,horizontal
1c,6,100111,1,34,34,24,F,NA,variable,homogeneous,6,present,0.990047931671143,1,vertical,vertical,1,1.03530423641205,green,6,3,622.862115532956,783.431649086356,977.137884467044,416.568350913644,870.287525733335,845.121732464271,1047.42541020038,661.690083377915,977.137884467044,416.568350913644,729.712474266665,354.878267535729,552.574589799621,538.309916622085,622.862115532956,783.431649086356,0,0,0,0,0,4,horizontal,horizontal,vertical,vertical,vertical,vertical
1c,6,100111,1,35,35,24,F,NA,variable,homogeneous,3,present,1.07418584823608,0,vertical,horizontal,1,1.01177427768707,green,1,3,883.019879386575,841.107236777826,549.685068220846,551.343706178981,883.019879386575,841.107236777826,967.295052392579,407.549057043193,549.685068220846,551.343706178981,0,0,0,0,0,0,4,0,0,NaN,NaN,NaN,vertical,horizontal,horizontal,none,none,none
1c,6,100111,1,36,36,24,F,NA,variable,homogeneous,4,present,0.879167795181274,1,vertical,vertical,1,0.952949380874634,green,4,3,550.57236181288,653.017481158529,746.982518841471,350.57236181288,853.017481158529,849.42763818712,1049.42763818712,546.982518841471,746.982518841471,350.57236181288,550.57236181288,653.017481158529,0,0,0,0,0,0,0,4,NaN,NaN,horizontal,vertical,horizontal,vertical,none,none
1c,6,100111,1,37,37,24,F,NA,variable,homogeneous,6,present,0.650390148162842,1,vertical,vertical,1,1.082364153862,green,2,3,963.910840470068,795.341332995339,1051.12597701811,555.719714694933,712.784863451954,839.621618300407,963.910840470068,795.341332995339,1051.12597701811,555.719714694933,887.215136548046,360.378381699593,636.089159529932,404.658667004661,548.874022981887,644.280285305067,0,4,0,0,0,0,horizontal,vertical,vertical,horizontal,horizontal,vertical
1c,6,100111,1,38,38,24,F,NA,variable,homogeneous,4,absent,0.740818023681641,1,vertical,vertical,1,0.658824896812439,green,4,NaN,551.535633479765,542.637481142314,NaN,NaN,742.637481142314,848.464366520235,1048.46436652023,657.362518857686,857.362518857686,351.535633479765,551.535633479765,542.637481142314,0,0,0,0,0,0,0,4,NaN,NaN,horizontal,horizontal,vertical,vertical,none,none
1c,6,100111,1,39,39,24,F,NA,variable,homogeneous,4,present,1.11643099784851,1,vertical,vertical,1,0.623529958724976,red,2,1,1054.65053136242,613.345668841951,786.654331158049,854.650531362416,786.654331158049,854.650531362416,1054.65053136242,613.345668841951,813.345668841951,345.349468637584,545.349468637584,586.654331158049,0,0,0,0,0,4,0,0,NaN,NaN,vertical,vertical,vertical,horizontal,none,none
1c,6,100111,1,40,40,24,F,NA,variable,homogeneous,6,present,1.59173202514648,1,horizontal,horizontal,1,1.03530423641205,green,1,6,899.636437764765,834.728737630372,646.537169096228,803.65205506206,899.636437764765,834.728737630372,1053.09926866854,631.076682568313,953.462830903772,396.34794493794,700.363562235235,365.271262369628,546.900731331463,568.923317431687,646.537169096228,803.65205506206,4,0,0,0,0,0,horizontal,vertical,horizontal,horizontal,horizontal,vertical
1c,6,100111,1,41,41,24,F,NA,variable,homogeneous,5,present,0.861940145492554,1,horizontal,horizontal,1,0.905889463424683,red,4,3,574.848363820974,480.284751489598,844.280285305067,348.874022981887,911.784642431215,829.192481806288,1052.5183575291,564.510859255183,844.280285305067,348.874022981887,574.848363820974,480.284751489598,616.568350913644,777.137884467044,0,0,0,0,0,4,0,NaN,vertical,horizontal,horizontal,horizontal,horizontal,none
1c,6,100111,1,42,42,24,F,NA,variable,homogeneous,3,present,0.945072174072266,1,vertical,vertical,1,0.694119834899902,red,2,3,1006.29933356561,450.114760665419,567.045908301137,496.282156015671,826.654758133252,853.60308331891,1006.29933356561,450.114760665419,567.045908301137,496.282156015671,0,0,0,0,0,0,0,4,0,NaN,NaN,NaN,horizontal,vertical,vertical,none,none,none
1c,6,100111,1,43,43,24,F,NA,variable,homogeneous,4,absent,1.01431202888489,1,vertical,vertical,1,0.905889463424683,red,3,NaN,751.343706178981,349.685068220846,NaN,NaN,848.656293821019,850.314931779154,1050.31493177915,551.343706178981,751.343706178981,349.685068220846,549.685068220846,648.656293821019,0,0,0,0,0,0,4,0,NaN,NaN,horizontal,vertical,vertical,horizontal,none,none
1c,6,100111,1,44,44,24,F,NA,variable,homogeneous,4,present,1.06318497657776,1,vertical,vertical,1,1.00000929832458,green,3,4,808.899371659138,345.155339110131,545.155339110131,591.100628340862,791.100628340862,854.844660889869,1054.84466088987,608.899371659138,808.899371659138,345.155339110131,545.155339110131,591.100628340862,0,0,0,0,0,0,4,0,NaN,NaN,horizontal,horizontal,vertical,horizontal,none,none
1c,6,100111,1,45,45,24,F,NA,variable,homogeneous,5,absent,0.898680925369263,1,horizontal,horizontal,1,0.894124484062195,green,2,NaN,1050.31493177915,648.656293821019,NaN,NaN,831.076682568313,853.099268668537,1050.31493177915,648.656293821019,923.626453162816,376.971974679454,626.090418184063,413.504806087112,568.891514305654,707.767656743878,0,0,0,4,0,0,0,NaN,vertical,horizontal,vertical,vertical,horizontal,none
1c,6,100111,1,46,46,24,F,NA,variable,homogeneous,4,absent,0.685190916061401,1,horizontal,horizontal,1,1.03530423641205,green,2,NaN,1027.20666366803,715.767577433584,NaN,NaN,684.232422566416,827.206663668034,1027.20666366803,715.767577433584,915.767577433584,372.793336331966,572.793336331966,484.232422566416,0,0,0,0,0,4,0,0,NaN,NaN,horizontal,horizontal,horizontal,horizontal,none,none
1c,6,100111,1,47,47,24,F,NA,variable,homogeneous,5,present,0.744060039520264,1,vertical,vertical,1,0.647059917449951,red,3,2,1041.10723677783,516.980120613425,953.462830903772,803.65205506206,653.738008730483,808.883771293693,953.462830903772,803.65205506206,1041.10723677783,516.980120613425,795.549636358493,345.03883773512,556.142287229426,525.445215295702,0,0,0,0,4,0,0,NaN,vertical,horizontal,vertical,vertical,vertical,none
1c,6,100111,1,48,48,24,F,NA,variable,homogeneous,3,present,0.856573104858398,0,horizontal,vertical,1,0.870594525337219,green,2,1,973.909581815937,413.504806087112,874.554784704298,843.857712770574,874.554784704298,843.857712770574,973.909581815937,413.504806087112,551.535633479765,542.637481142314,0,0,0,0,0,0,0,4,0,NaN,NaN,NaN,vertical,horizontal,vertical,none,none,none
1c,6,100111,1,49,49,24,F,NA,variable,homogeneous,4,present,0.865648984909058,1,horizontal,horizontal,1,1.01177427768707,red,1,4,970.628304621509,789.501930496736,610.498069503264,770.628304621509,970.628304621509,789.501930496736,989.501930496736,429.371695378491,629.371695378491,410.498069503264,610.498069503264,770.628304621509,0,0,0,0,4,0,0,0,NaN,NaN,horizontal,vertical,vertical,horizontal,none,none
1c,6,100111,1,50,50,24,F,NA,variable,homogeneous,4,present,1.29272103309631,1,horizontal,horizontal,1,0.870594525337219,green,4,3,550.57236181288,653.017481158529,746.982518841471,350.57236181288,853.017481158529,849.42763818712,1049.42763818712,546.982518841471,746.982518841471,350.57236181288,550.57236181288,653.017481158529,0,0,0,0,0,0,0,4,NaN,NaN,horizontal,vertical,vertical,horizontal,none,none
1c,6,100111,1,51,51,24,F,NA,variable,homogeneous,6,absent,0.685391902923584,1,vertical,vertical,1,0.91765444278717,red,3,NaN,1046.31108570371,534.001143498857,NaN,NaN,734.001143498857,846.311085703712,980.31222920257,780.31222920257,1046.31108570371,534.001143498857,865.998856501143,353.688914296288,619.68777079743,419.68777079743,553.688914296288,665.998856501143,0,0,4,0,0,0,horizontal,vertical,vertical,horizontal,horizontal,vertical
1c,6,100111,1,52,52,24,F,NA,variable,homogeneous,4,absent,0.745113134384155,0,vertical,horizontal,1,0.894124484062195,red,2,NaN,986.495193912888,773.909581815937,NaN,NaN,626.090418184063,786.495193912888,986.495193912888,773.909581815937,973.909581815937,413.504806087112,613.504806087112,426.090418184063,0,0,0,0,0,4,0,0,NaN,NaN,horizontal,vertical,vertical,vertical,none,none
1c,6,100111,1,53,53,24,F,NA,variable,homogeneous,4,present,1.0779128074646,1,horizontal,horizontal,1,0.882359504699707,red,4,2,572.793336331966,715.767577433584,1027.20666366803,484.232422566416,915.767577433584,827.206663668034,1027.20666366803,484.232422566416,684.232422566416,372.793336331966,572.793336331966,715.767577433584,0,0,0,0,0,0,0,4,NaN,NaN,horizontal,horizontal,vertical,horizontal,none,none
1c,6,100111,1,54,54,24,F,NA,variable,homogeneous,5,present,0.939126014709473,0,horizontal,vertical,1,0.976479339599609,green,4,1,646.537169096228,396.34794493794,804.450363641507,854.96116226488,804.450363641507,854.96116226488,1043.85771277057,674.554784704298,946.261991269517,391.116228706307,646.537169096228,396.34794493794,558.892763222174,683.019879386575,0,0,0,0,0,4,0,NaN,horizontal,vertical,horizontal,horizontal,horizontal,none
1c,6,100111,1,55,55,24,F,NA,variable,homogeneous,3,present,0.922497034072876,1,vertical,vertical,1,0.835299587249756,green,1,2,826.654758133252,853.60308331891,1006.29933356561,450.114760665419,826.654758133252,853.60308331891,1006.29933356561,450.114760665419,567.045908301137,496.282156015671,0,0,0,0,0,0,4,0,0,NaN,NaN,NaN,vertical,vertical,horizontal,none,none,none
1c,6,100111,1,56,56,24,F,NA,variable,homogeneous,6,present,0.839648008346558,1,horizontal,horizontal,1,0.729414772987366,red,1,4,773.345241866748,853.60308331891,826.654758133252,346.39691668109,773.345241866748,853.60308331891,1006.29933356561,749.885239334581,1032.95409169886,496.282156015671,826.654758133252,346.39691668109,593.700666434388,450.114760665419,567.045908301137,703.717843984329,4,0,0,0,0,0,horizontal,vertical,horizontal,vertical,vertical,vertical
1c,6,100111,1,57,57,24,F,NA,variable,homogeneous,5,present,0.703789949417114,1,vertical,vertical,1,0.952949380874634,red,2,5,1052.5183575291,635.489140744817,574.848363820974,719.715248510402,844.280285305067,851.125977018113,1052.5183575291,635.489140744817,911.784642431215,370.807518193712,616.568350913644,422.862115532956,574.848363820974,719.715248510402,0,0,0,4,0,0,0,NaN,horizontal,vertical,vertical,vertical,horizontal,none
1c,6,100111,1,58,58,24,F,NA,variable,homogeneous,5,absent,0.708130836486816,0,vertical,horizontal,1,0.905889463424683,red,1,NaN,911.784642431215,829.192481806288,NaN,NaN,911.784642431215,829.192481806288,1052.5183575291,564.510859255183,844.280285305067,348.874022981887,574.848363820974,480.284751489598,616.568350913644,777.137884467044,0,0,4,0,0,0,0,NaN,vertical,horizontal,horizontal,horizontal,horizontal,none
1c,6,100111,1,59,59,24,F,NA,variable,homogeneous,3,absent,1.13878798484802,1,vertical,vertical,1,0.81176962852478,red,1,NaN,704.475318678942,836.431882914531,NaN,NaN,704.475318678942,836.431882914531,1052.5183575291,564.510859255183,643.006323791957,399.057257830286,0,0,0,0,0,0,4,0,0,NaN,NaN,NaN,vertical,horizontal,vertical,none,none,none
1c,6,100111,1,60,60,24,F,NA,variable,homogeneous,5,absent,0.818794012069702,1,vertical,vertical,1,1.05883419513702,green,3,NaN,1039.62161830041,512.784863451954,NaN,NaN,657.405809614959,811.404581001536,956.993676208043,800.942742169714,1039.62161830041,512.784863451954,791.100628340862,345.155339110131,554.878267535729,529.712474266665,0,0,0,0,4,0,0,NaN,horizontal,vertical,vertical,vertical,horizontal,none
1c,6,100111,1,61,61,24,F,NA,variable,homogeneous,6,absent,0.665343999862671,1,horizontal,horizontal,1,0.70588481426239,red,2,NaN,1053.09926866854,631.076682568313,NaN,NaN,899.636437764765,834.728737630372,1053.09926866854,631.076682568313,953.462830903772,396.34794493794,700.363562235235,365.271262369628,546.900731331463,568.923317431687,646.537169096228,803.65205506206,0,4,0,0,0,0,vertical,horizontal,vertical,horizontal,horizontal,vertical
1c,6,100111,1,62,62,24,F,NA,variable,homogeneous,4,present,0.712634086608887,1,vertical,vertical,1,0.70588481426239,red,4,1,593.700666434388,749.885239334581,949.885239334581,806.299333565612,949.885239334581,806.299333565612,1006.29933356561,450.114760665419,650.114760665419,393.700666434388,593.700666434388,749.885239334581,0,0,0,0,0,0,0,4,NaN,NaN,vertical,horizontal,vertical,vertical,none,none
1c,6,100111,1,63,63,24,F,NA,variable,homogeneous,3,present,0.976861000061035,1,horizontal,horizontal,1,0.882359504699707,green,2,1,1052.5183575291,564.510859255183,704.475318678942,836.431882914531,704.475318678942,836.431882914531,1052.5183575291,564.510859255183,643.006323791957,399.057257830286,0,0,0,0,0,0,0,4,0,NaN,NaN,NaN,horizontal,horizontal,vertical,none,none,none
1c,6,100111,1,64,64,24,F,NA,variable,homogeneous,6,absent,0.9685959815979,1,horizontal,horizontal,1,0.988244318962097,green,5,NaN,632.704947607421,407.549057043193,NaN,NaN,716.980120613425,841.107236777826,967.295052392579,792.450942956807,1050.31493177915,551.343706178981,883.019879386575,358.892763222174,632.704947607421,407.549057043193,549.685068220846,648.656293821019,0,0,0,0,4,0,horizontal,vertical,vertical,vertical,horizontal,vertical
1c,6,100111,2,1,65,24,F,NA,variable,homogeneous,6,absent,1.01965403556824,1,horizontal,horizontal,1,0.882359504699707,red,4,NaN,874.554784704298,356.142287229426,NaN,NaN,725.445215295702,843.857712770574,973.909581815937,786.495193912888,1048.46436652023,542.637481142314,874.554784704298,356.142287229426,626.090418184063,413.504806087112,551.535633479765,657.362518857686,0,0,0,4,0,0,vertical,vertical,horizontal,horizontal,horizontal,vertical
1c,6,100111,2,2,66,24,F,NA,variable,homogeneous,5,present,1.20357203483582,1,horizontal,horizontal,1,0.976479339599609,green,2,5,998.172220171528,760.476699717708,545.349468637584,586.654331158049,708.616172865948,838.063008756786,998.172220171528,760.476699717708,1013.86099482608,461.117046071168,734.001143498857,353.688914296288,545.349468637584,586.654331158049,0,0,0,4,0,0,0,NaN,horizontal,horizontal,horizontal,horizontal,vertical,none
1c,6,100111,2,3,67,24,F,NA,variable,homogeneous,3,absent,0.696615934371948,1,horizontal,horizontal,1,1.04706921577454,green,1,NaN,579.163522034968,727.5,NaN,NaN,579.163522034968,727.5,1020.83647796503,727.5,800,345,0,0,0,0,0,0,4,0,0,NaN,NaN,NaN,horizontal,vertical,vertical,none,none,none
1c,6,100111,2,4,68,24,F,NA,variable,homogeneous,3,present,0.652063846588135,1,horizontal,horizontal,1,0.658824896812439,red,1,2,646.537169096228,803.65205506206,1053.09926866854,631.076682568313,646.537169096228,803.65205506206,1053.09926866854,631.076682568313,700.363562235235,365.271262369628,0,0,0,0,0,0,4,0,0,NaN,NaN,NaN,horizontal,vertical,vertical,none,none,none
1c,6,100111,2,5,69,24,F,NA,variable,homogeneous,3,present,1.17356395721436,1,vertical,vertical,1,0.611764979362488,red,3,2,795.549636358493,345.03883773512,1023.02802532055,723.626453162816,581.422338320961,731.334709102064,1023.02802532055,723.626453162816,795.549636358493,345.03883773512,0,0,0,0,0,0,0,0,4,NaN,NaN,NaN,horizontal,horizontal,vertical,none,none,none
1c,6,100111,2,6,70,24,F,NA,variable,homogeneous,5,present,1.2704029083252,1,vertical,vertical,1,0.670589876174927,green,2,5,1053.09926866854,568.923317431687,613.504806087112,773.909581815937,907.767656743878,831.108485694346,1053.09926866854,568.923317431687,848.656293821019,349.685068220846,576.971974679454,476.373546837184,613.504806087112,773.909581815937,0,0,0,4,0,0,0,NaN,vertical,vertical,horizontal,vertical,vertical,none
1c,6,100111,2,7,71,24,F,NA,variable,homogeneous,5,present,1.36756300926208,1,vertical,vertical,1,0.964714360237122,red,1,4,949.885239334581,806.299333565612,557.480588344736,521.200666434388,949.885239334581,806.299333565612,1042.51941165526,521.200666434388,800,345,557.480588344736,521.200666434388,650.114760665419,806.299333565612,0,0,4,0,0,0,0,NaN,vertical,vertical,vertical,horizontal,horizontal,none
1c,6,100111,2,8,72,24,F,NA,variable,homogeneous,6,absent,0.740787982940674,1,vertical,vertical,1,0.882359504699707,green,3,NaN,956.993676208043,399.057257830286,NaN,NaN,895.524681321058,836.431882914531,1052.5183575291,635.489140744817,956.993676208043,399.057257830286,704.475318678942,363.568117085469,547.481642470899,564.510859255183,643.006323791957,800.942742169714,0,0,4,0,0,0,horizontal,horizontal,vertical,horizontal,vertical,horizontal
1c,6,100111,2,9,73,24,F,NA,variable,homogeneous,5,absent,0.748776912689209,1,vertical,vertical,1,0.647059917449951,green,4,NaN,572.793336331966,484.232422566416,NaN,NaN,915.767577433584,827.206663668034,1051.86052685176,560.109211414741,839.890788585259,348.13947314824,572.793336331966,484.232422566416,619.68777079743,780.31222920257,0,0,0,0,0,4,0,NaN,vertical,vertical,horizontal,vertical,vertical,none
1c,6,100111,2,10,74,24,F,NA,variable,homogeneous,4,present,1.08772706985474,1,vertical,vertical,1,1.01177427768707,green,3,2,973.909581815937,413.504806087112,986.495193912888,773.909581815937,626.090418184063,786.495193912888,986.495193912888,773.909581815937,973.909581815937,413.504806087112,613.504806087112,426.090418184063,0,0,0,0,0,0,4,0,NaN,NaN,vertical,vertical,vertical,horizontal,none,none
1c,6,100111,2,11,75,24,F,NA,variable,homogeneous,4,absent,0.567564010620117,1,vertical,vertical,1,0.682354855537414,red,2,NaN,1008.88377129369,453.738008730483,NaN,NaN,946.261991269517,808.883771293693,1008.88377129369,453.738008730483,653.738008730483,391.116228706307,591.116228706307,746.261991269517,0,0,0,0,0,4,0,0,NaN,NaN,vertical,vertical,vertical,vertical,none,none
1c,6,100111,2,12,76,24,F,NA,variable,homogeneous,5,absent,0.866879940032959,1,horizontal,horizontal,1,0.988244318962097,green,4,NaN,668.665290897936,381.422338320961,NaN,NaN,777.775285599347,854.029648013395,1034.72873763037,699.636437764765,967.295052392579,407.549057043193,668.665290897936,381.422338320961,551.535633479765,657.362518857686,0,0,0,0,0,4,0,NaN,horizontal,vertical,horizontal,horizontal,vertical,none
1c,6,100111,2,13,77,24,F,NA,variable,homogeneous,6,present,1.30551600456238,1,vertical,vertical,1,0.858829545974731,green,6,2,613.504806087112,773.909581815937,1043.85771277057,674.554784704298,857.362518857686,848.464366520235,1043.85771277057,674.554784704298,986.495193912888,426.090418184063,742.637481142314,351.535633479765,556.142287229426,525.445215295702,613.504806087112,773.909581815937,0,0,0,0,0,4,vertical,vertical,horizontal,vertical,horizontal,vertical
1c,6,100111,2,14,78,24,F,NA,variable,homogeneous,4,absent,0.87871789932251,1,vertical,vertical,1,0.741179752349854,green,1,NaN,822.224714400653,854.029648013395,NaN,NaN,822.224714400653,854.029648013395,1054.0296480134,577.775285599347,777.775285599347,345.970351986605,545.970351986605,622.224714400653,0,0,0,0,4,0,0,0,NaN,NaN,vertical,vertical,horizontal,horizontal,none,none
1c,6,100111,2,15,79,24,F,NA,variable,homogeneous,3,present,0.762086868286133,1,vertical,vertical,1,0.682354855537414,red,3,2,557.480588344736,521.200666434388,989.501930496736,429.371695378491,853.017481158529,849.42763818712,989.501930496736,429.371695378491,557.480588344736,521.200666434388,0,0,0,0,0,0,0,0,4,NaN,NaN,NaN,horizontal,horizontal,vertical,none,none,none
1c,6,100111,2,16,80,24,F,NA,variable,homogeneous,6,absent,0.91795802116394,1,vertical,vertical,1,0.823534607887268,green,4,NaN,760.109211414741,348.13947314824,NaN,NaN,839.890788585259,851.86052685176,1038.06300875679,691.383827134052,998.172220171528,439.523300282291,760.109211414741,348.13947314824,561.936991243214,508.616172865948,601.827779828472,760.476699717708,0,0,0,4,0,0,horizontal,vertical,vertical,vertical,vertical,vertical
1c,6,100111,2,17,81,24,F,NA,variable,homogeneous,4,present,0.533535957336426,1,vertical,vertical,1,1.04706921577454,red,3,1,738.309916622085,352.574589799621,861.690083377915,847.425410200379,861.690083377915,847.425410200379,1047.42541020038,538.309916622085,738.309916622085,352.574589799621,552.574589799621,661.690083377915,0,0,0,0,0,0,4,0,NaN,NaN,vertical,vertical,vertical,horizontal,none,none
1c,6,100111,2,18,82,24,F,NA,variable,homogeneous,6,absent,1.25518298149109,1,horizontal,horizontal,1,0.752944731712341,green,1,NaN,861.690083377915,847.425410200379,NaN,NaN,861.690083377915,847.425410200379,1045.12173246427,670.287525733335,983.431649086356,422.862115532956,738.309916622085,352.574589799621,554.878267535729,529.712474266665,616.568350913644,777.137884467044,4,0,0,0,0,0,horizontal,vertical,vertical,vertical,vertical,horizontal
1c,6,100111,2,19,83,24,F,NA,variable,homogeneous,5,absent,0.745776891708374,1,vertical,vertical,1,1.05883419513702,red,3,NaN,891.383827134052,361.936991243214,NaN,NaN,865.998856501143,846.311085703712,1054.65053136242,613.345668841951,891.383827134052,361.936991243214,601.827779828472,439.523300282291,586.139005173917,738.882953928832,0,0,0,0,4,0,0,NaN,horizontal,horizontal,vertical,horizontal,vertical,none
1c,6,100111,2,20,84,24,F,NA,variable,homogeneous,3,absent,1.05971503257751,1,vertical,vertical,1,0.741179752349854,red,3,NaN,561.936991243214,691.383827134052,NaN,NaN,998.172220171528,760.476699717708,839.890788585259,348.13947314824,561.936991243214,691.383827134052,0,0,0,0,0,0,0,0,4,NaN,NaN,NaN,vertical,horizontal,vertical,none,none,none
1c,6,100111,2,21,85,24,F,NA,variable,homogeneous,4,absent,1.03802514076233,1,horizontal,horizontal,1,0.847064566612244,red,2,NaN,1054.37883281626,617.787900804752,NaN,NaN,782.212099195248,854.378832816255,1054.37883281626,617.787900804752,817.787900804752,345.621167183745,545.621167183745,582.212099195248,0,0,0,0,0,4,0,0,NaN,NaN,horizontal,horizontal,vertical,horizontal,none,none
1c,6,100111,2,22,86,24,F,NA,variable,homogeneous,3,present,0.93246603012085,1,horizontal,horizontal,1,1.082364153862,green,2,1,980.31222920257,419.68777079743,865.998856501143,846.311085703712,865.998856501143,846.311085703712,980.31222920257,419.68777079743,553.688914296288,534.001143498857,0,0,0,0,0,0,0,4,0,NaN,NaN,NaN,horizontal,horizontal,vertical,none,none,none
1c,6,100111,2,23,87,24,F,NA,variable,homogeneous,5,absent,0.823549032211304,1,horizontal,horizontal,1,0.6,red,2,NaN,1038.06300875679,691.383827134052,NaN,NaN,786.654331158049,854.650531362416,1038.06300875679,691.383827134052,960.476699717708,401.827779828472,661.117046071168,386.139005173917,553.688914296288,665.998856501143,0,0,0,4,0,0,0,NaN,horizontal,horizontal,horizontal,horizontal,horizontal,none
1c,6,100111,2,24,88,24,F,NA,variable,homogeneous,3,present,0.922245025634766,1,vertical,vertical,1,0.905889463424683,green,3,1,579.163522034968,472.5,800,855,800,855,1020.83647796503,472.5,579.163522034968,472.5,0,0,0,0,0,0,0,0,4,NaN,NaN,NaN,horizontal,vertical,vertical,none,none,none
1c,6,100111,2,25,89,24,F,NA,variable,homogeneous,6,absent,0.826926946640015,1,horizontal,horizontal,1,0.694119834899902,green,2,NaN,1055,600,NaN,NaN,927.5,820.836477965032,1055,600,927.5,379.163522034968,672.5,379.163522034968,545,600,672.5,820.836477965032,0,4,0,0,0,0,horizontal,horizontal,vertical,horizontal,vertical,vertical
1c,6,100111,2,26,90,24,F,NA,variable,homogeneous,6,present,0.760907888412476,1,vertical,vertical,1,0.870594525337219,green,5,1,583.747735480111,464.870587620533,791.100628340862,854.844660889869,791.100628340862,854.844660889869,1016.25226451989,735.129412379467,1025.15163617903,480.284751489598,808.899371659138,345.155339110131,583.747735480111,464.870587620533,574.848363820974,719.715248510402,0,0,0,0,4,0,vertical,horizontal,horizontal,vertical,vertical,horizontal
1c,6,100111,2,27,91,24,F,NA,variable,homogeneous,6,present,0.756253004074097,1,vertical,vertical,1,0.800004649162293,red,2,1,1051.12597701811,644.280285305067,887.215136548046,839.621618300407,887.215136548046,839.621618300407,1051.12597701811,644.280285305067,963.910840470068,404.658667004661,712.784863451954,360.378381699593,548.874022981887,555.719714694933,636.089159529932,795.341332995339,0,4,0,0,0,0,horizontal,vertical,vertical,horizontal,horizontal,vertical
1c,6,100111,2,28,92,24,F,NA,variable,homogeneous,4,present,0.605385065078735,1,vertical,vertical,1,0.882359504699707,red,3,2,751.343706178981,349.685068220846,1050.31493177915,551.343706178981,848.656293821019,850.314931779154,1050.31493177915,551.343706178981,751.343706178981,349.685068220846,549.685068220846,648.656293821019,0,0,0,0,0,0,4,0,NaN,NaN,vertical,vertical,vertical,vertical,none,none
1c,6,100111,2,29,93,24,F,NA,variable,homogeneous,6,present,0.689013004302979,1,horizontal,horizontal,1,0.776474690437317,green,2,6,1008.88377129369,746.261991269517,568.891514305654,707.767656743878,777.775285599347,854.029648013395,1008.88377129369,746.261991269517,1031.10848569435,492.232343256122,822.224714400653,345.970351986605,591.116228706307,453.738008730483,568.891514305654,707.767656743878,0,4,0,0,0,0,vertical,horizontal,vertical,vertical,horizontal,horizontal
1c,6,100111,2,30,94,24,F,NA,variable,homogeneous,3,absent,0.529150009155273,1,vertical,vertical,1,0.70588481426239,red,3,NaN,688.215357568785,370.807518193712,NaN,NaN,657.405809614959,811.404581001536,1054.37883281626,617.787900804752,688.215357568785,370.807518193712,0,0,0,0,0,0,0,0,4,NaN,NaN,NaN,horizontal,vertical,vertical,none,none,none
1c,6,100111,2,31,95,24,F,NA,variable,homogeneous,3,absent,0.928119897842407,1,horizontal,horizontal,1,1.01177427768707,green,3,NaN,751.343706178981,349.685068220846,NaN,NaN,607.549057043193,767.295052392579,1041.10723677783,683.019879386575,751.343706178981,349.685068220846,0,0,0,0,0,0,0,0,4,NaN,NaN,NaN,vertical,vertical,horizontal,none,none,none
1c,6,100111,2,32,96,24,F,NA,variable,homogeneous,4,present,1.45674896240234,0,horizontal,vertical,1,0.882359504699707,red,4,1,613.504806087112,773.909581815937,973.909581815937,786.495193912888,973.909581815937,786.495193912888,986.495193912888,426.090418184063,626.090418184063,413.504806087112,613.504806087112,773.909581815937,0,0,0,0,0,0,0,4,NaN,NaN,horizontal,vertical,vertical,horizontal,none,none
1c,6,100111,2,33,97,24,F,NA,variable,homogeneous,3,present,0.950340986251831,1,vertical,vertical,1,1.02353925704956,green,3,2,557.480588344736,521.200666434388,989.501930496736,429.371695378491,853.017481158529,849.42763818712,989.501930496736,429.371695378491,557.480588344736,521.200666434388,0,0,0,0,0,0,0,0,4,NaN,NaN,NaN,horizontal,vertical,vertical,none,none,none
1c,6,100111,2,34,98,24,F,NA,variable,homogeneous,4,absent,0.8576500415802,1,horizontal,horizontal,1,0.81176962852478,red,3,NaN,800,345,NaN,NaN,800,855,1055,600,800,345,545,600,0,0,0,0,0,0,4,0,NaN,NaN,horizontal,vertical,horizontal,vertical,none,none
1c,6,100111,2,35,99,24,F,NA,variable,homogeneous,4,present,1.07499980926514,1,horizontal,horizontal,1,0.800004649162293,green,3,4,773.345241866748,346.39691668109,546.39691668109,626.654758133252,826.654758133252,853.60308331891,1053.60308331891,573.345241866748,773.345241866748,346.39691668109,546.39691668109,626.654758133252,0,0,0,0,0,0,4,0,NaN,NaN,horizontal,vertical,horizontal,horizontal,none,none
1c,6,100111,2,36,100,24,F,NA,variable,homogeneous,4,present,0.557118892669678,1,horizontal,horizontal,1,0.81176962852478,green,3,4,935.129412379467,383.747735480111,583.747735480111,464.870587620533,664.870587620533,816.252264519889,1016.25226451989,735.129412379467,935.129412379467,383.747735480111,583.747735480111,464.870587620533,0,0,0,0,0,0,4,0,NaN,NaN,vertical,horizontal,horizontal,vertical,none,none
1c,6,100111,2,37,101,24,F,NA,variable,homogeneous,5,present,0.787121057510376,1,horizontal,horizontal,1,0.941184401512146,green,5,4,545.03883773512,595.549636358493,725.445215295702,356.142287229426,716.980120613425,841.107236777826,1003.65205506206,753.462830903772,1008.88377129369,453.738008730483,725.445215295702,356.142287229426,545.03883773512,595.549636358493,0,0,0,0,0,0,4,NaN,vertical,horizontal,horizontal,horizontal,horizontal,none
1c,6,100111,2,38,102,24,F,NA,variable,homogeneous,5,present,0.713238000869751,1,vertical,vertical,1,0.905889463424683,green,2,4,1052.5183575291,635.489140744817,616.568350913644,422.862115532956,844.280285305067,851.125977018113,1052.5183575291,635.489140744817,911.784642431215,370.807518193712,616.568350913644,422.862115532956,574.848363820974,719.715248510402,0,0,0,4,0,0,0,NaN,vertical,vertical,horizontal,vertical,horizontal,none
1c,6,100111,2,39,103,24,F,NA,variable,homogeneous,3,absent,0.916147947311401,1,horizontal,horizontal,1,0.623529958724976,red,3,NaN,567.045908301137,703.717843984329,NaN,NaN,1006.29933356561,749.885239334581,826.654758133252,346.39691668109,567.045908301137,703.717843984329,0,0,0,0,0,0,0,0,4,NaN,NaN,NaN,vertical,vertical,horizontal,none,none,none
1c,6,100111,2,40,104,24,F,NA,variable,homogeneous,4,absent,0.740628004074097,1,vertical,vertical,1,0.694119834899902,red,3,NaN,844.280285305067,348.874022981887,NaN,NaN,755.719714694933,851.125977018113,1051.12597701811,644.280285305067,844.280285305067,348.874022981887,548.874022981887,555.719714694933,0,0,0,0,0,0,4,0,NaN,NaN,horizontal,horizontal,vertical,vertical,none,none
1c,6,100111,2,41,105,24,F,NA,variable,homogeneous,6,present,1.56427597999573,1,horizontal,horizontal,1,0.823534607887268,red,1,5,760.109211414741,851.86052685176,601.827779828472,439.523300282291,760.109211414741,851.86052685176,998.172220171528,760.476699717708,1038.06300875679,508.616172865948,839.890788585259,348.13947314824,601.827779828472,439.523300282291,561.936991243214,691.383827134052,4,0,0,0,0,0,horizontal,horizontal,horizontal,horizontal,vertical,vertical
1c,6,100111,2,42,106,24,F,NA,variable,homogeneous,5,absent,1.14547896385193,0,horizontal,vertical,1,0.882359504699707,red,3,NaN,1032.95409169886,496.282156015671,NaN,NaN,672.5,820.836477965032,970.628304621509,789.501930496736,1032.95409169886,496.282156015671,773.345241866748,346.39691668109,550.57236181288,546.982518841471,0,0,0,0,4,0,0,NaN,horizontal,horizontal,horizontal,vertical,vertical,none
1c,6,100111,2,43,107,24,F,NA,variable,homogeneous,3,absent,0.917335033416748,1,vertical,vertical,1,0.835299587249756,green,2,NaN,874.554784704298,356.142287229426,NaN,NaN,973.909581815937,786.495193912888,874.554784704298,356.142287229426,551.535633479765,657.362518857686,0,0,0,0,0,0,0,4,0,NaN,NaN,NaN,vertical,vertical,vertical,none,none,none
1c,6,100111,2,44,108,24,F,NA,variable,homogeneous,6,absent,0.794075965881348,1,vertical,vertical,1,0.70588481426239,red,3,NaN,1050.31493177915,551.343706178981,NaN,NaN,716.980120613425,841.107236777826,967.295052392579,792.450942956807,1050.31493177915,551.343706178981,883.019879386575,358.892763222174,632.704947607421,407.549057043193,549.685068220846,648.656293821019,0,0,4,0,0,0,horizontal,vertical,vertical,vertical,vertical,horizontal
1c,6,100111,2,45,109,24,F,NA,variable,homogeneous,4,absent,0.768616199493408,1,horizontal,horizontal,1,0.929419422149658,green,1,NaN,977.137884467044,783.431649086356,NaN,NaN,977.137884467044,783.431649086356,983.431649086356,422.862115532956,622.862115532956,416.568350913644,616.568350913644,777.137884467044,0,0,0,0,4,0,0,0,NaN,NaN,horizontal,vertical,vertical,vertical,none,none
1c,6,100111,2,46,110,24,F,NA,variable,homogeneous,4,present,1.16912889480591,1,vertical,vertical,1,1.04706921577454,green,4,3,545.349468637584,613.345668841951,786.654331158049,345.349468637584,813.345668841951,854.650531362416,1054.65053136242,586.654331158049,786.654331158049,345.349468637584,545.349468637584,613.345668841951,0,0,0,0,0,0,0,4,NaN,NaN,horizontal,horizontal,vertical,vertical,none,none
1c,6,100111,2,47,111,24,F,NA,variable,homogeneous,5,absent,0.742297887802124,1,vertical,vertical,1,0.682354855537414,red,4,NaN,777.775285599347,345.970351986605,NaN,NaN,668.665290897936,818.577661679039,967.295052392579,792.450942956807,1034.72873763037,500.363562235235,777.775285599347,345.970351986605,551.535633479765,542.637481142314,0,0,0,0,0,4,0,NaN,vertical,horizontal,vertical,vertical,vertical,none
1c,6,100111,2,48,112,24,F,NA,variable,homogeneous,6,present,0.707063913345337,1,horizontal,horizontal,1,0.882359504699707,red,3,5,1054.65053136242,586.654331158049,661.117046071168,386.139005173917,684.232422566416,827.206663668034,938.882953928832,813.860994826083,1054.65053136242,586.654331158049,915.767577433584,372.793336331966,661.117046071168,386.139005173917,545.349468637584,613.345668841951,0,0,4,0,0,0,horizontal,horizontal,horizontal,vertical,vertical,vertical
1c,6,100111,2,49,113,24,F,NA,variable,homogeneous,3,present,0.746632099151611,1,horizontal,horizontal,1,0.858829545974731,red,3,1,549.685068220846,648.656293821019,967.295052392579,792.450942956807,967.295052392579,792.450942956807,883.019879386575,358.892763222174,549.685068220846,648.656293821019,0,0,0,0,0,0,0,0,4,NaN,NaN,NaN,horizontal,horizontal,horizontal,none,none,none
1c,6,100111,2,50,114,24,F,NA,variable,homogeneous,5,present,0.826691150665283,1,vertical,vertical,1,0.647059917449951,red,4,1,704.475318678942,363.568117085469,738.309916622085,847.425410200379,738.309916622085,847.425410200379,1016.25226451989,735.129412379467,995.341332995339,436.089159529932,704.475318678942,363.568117085469,545.621167183745,617.787900804752,0,0,0,0,0,4,0,NaN,vertical,vertical,horizontal,vertical,vertical,none
1c,6,100111,2,51,115,24,F,NA,variable,homogeneous,5,present,0.616311073303223,1,horizontal,horizontal,1,0.847064566612244,red,4,2,786.654331158049,345.349468637584,960.476699717708,798.172220171528,661.117046071168,813.860994826083,960.476699717708,798.172220171528,1038.06300875679,508.616172865948,786.654331158049,345.349468637584,553.688914296288,534.001143498857,0,0,0,0,0,4,0,NaN,vertical,vertical,horizontal,horizontal,horizontal,none
1c,6,100111,2,52,116,24,F,NA,variable,homogeneous,3,absent,0.787192106246948,1,horizontal,horizontal,1,0.717649793624878,red,1,NaN,931.334709102064,818.577661679039,NaN,NaN,931.334709102064,818.577661679039,923.626453162816,376.971974679454,545.03883773512,604.450363641507,0,0,0,0,0,0,4,0,0,NaN,NaN,NaN,horizontal,vertical,vertical,none,none,none
1c,6,100111,2,53,117,24,F,NA,variable,homogeneous,3,absent,0.621545076370239,1,vertical,vertical,1,0.91765444278717,green,2,NaN,1054.96116226488,595.549636358493,NaN,NaN,676.373546837184,823.028025320546,1054.96116226488,595.549636358493,668.665290897936,381.422338320961,0,0,0,0,0,0,0,4,0,NaN,NaN,NaN,horizontal,vertical,horizontal,none,none,none
1c,6,100111,2,54,118,24,F,NA,variable,homogeneous,6,present,0.804208993911743,1,vertical,vertical,1,0.905889463424683,red,4,6,795.549636358493,345.03883773512,581.422338320961,731.334709102064,804.450363641507,854.96116226488,1023.02802532055,723.626453162816,1018.57766167904,468.665290897936,795.549636358493,345.03883773512,576.971974679454,476.373546837184,581.422338320961,731.334709102064,0,0,0,4,0,0,vertical,vertical,horizontal,vertical,vertical,vertical
1c,6,100111,2,55,119,24,F,NA,variable,homogeneous,4,absent,0.496906042098999,1,vertical,vertical,1,1.02353925704956,green,3,NaN,653.738008730483,391.116228706307,NaN,NaN,946.261991269517,808.883771293693,1008.88377129369,453.738008730483,653.738008730483,391.116228706307,591.116228706307,746.261991269517,0,0,0,0,0,0,4,0,NaN,NaN,vertical,vertical,vertical,vertical,none,none
1c,6,100111,2,56,120,24,F,NA,variable,homogeneous,5,absent,0.736424922943115,1,horizontal,horizontal,1,1.07059917449951,green,2,NaN,1025.15163617903,719.715248510402,NaN,NaN,755.719714694933,851.125977018113,1025.15163617903,719.715248510402,983.431649086356,422.862115532956,688.215357568785,370.807518193712,547.481642470899,635.489140744817,0,0,0,4,0,0,0,NaN,vertical,horizontal,vertical,horizontal,horizontal,none
1c,6,100111,2,57,121,24,F,NA,variable,homogeneous,3,present,1.23009490966797,1,horizontal,horizontal,1,0.941184401512146,green,2,3,857.362518857686,351.535633479765,556.142287229426,674.554784704298,986.495193912888,773.909581815937,857.362518857686,351.535633479765,556.142287229426,674.554784704298,0,0,0,0,0,0,0,4,0,NaN,NaN,NaN,horizontal,horizontal,vertical,none,none,none
1c,6,100111,2,58,122,24,F,NA,variable,homogeneous,4,present,1.56290984153748,1,horizontal,horizontal,1,0.800004649162293,red,1,4,672.5,820.836477965032,579.163522034968,472.5,672.5,820.836477965032,1020.83647796503,727.5,927.5,379.163522034968,579.163522034968,472.5,0,0,0,0,4,0,0,0,NaN,NaN,horizontal,vertical,vertical,vertical,none,none
1c,6,100111,2,59,123,24,F,NA,variable,homogeneous,6,absent,0.97522497177124,1,vertical,vertical,1,1.04706921577454,red,3,NaN,1053.60308331891,573.345241866748,NaN,NaN,696.282156015671,832.954091698863,949.885239334581,806.299333565612,1053.60308331891,573.345241866748,903.717843984329,367.045908301137,650.114760665419,393.700666434388,546.39691668109,626.654758133252,0,0,4,0,0,0,vertical,vertical,vertical,horizontal,horizontal,horizontal
1c,6,100111,2,60,124,24,F,NA,variable,homogeneous,6,present,0.953155040740967,1,horizontal,horizontal,1,0.70588481426239,green,5,3,546.900731331463,568.923317431687,953.462830903772,396.34794493794,899.636437764765,834.728737630372,1053.09926866854,631.076682568313,953.462830903772,396.34794493794,700.363562235235,365.271262369628,546.900731331463,568.923317431687,646.537169096228,803.65205506206,0,0,0,0,4,0,horizontal,horizontal,vertical,horizontal,horizontal,horizontal
1c,6,100111,2,61,125,24,F,NA,variable,homogeneous,5,present,1.03412199020386,1,horizontal,horizontal,1,0.682354855537414,red,4,5,777.775285599347,345.970351986605,551.535633479765,542.637481142314,668.665290897936,818.577661679039,967.295052392579,792.450942956807,1034.72873763037,500.363562235235,777.775285599347,345.970351986605,551.535633479765,542.637481142314,0,0,0,0,0,4,0,NaN,vertical,vertical,vertical,horizontal,vertical,none
1c,6,100111,2,62,126,24,F,NA,variable,homogeneous,5,absent,0.9234938621521,1,vertical,vertical,1,0.623529958724976,green,2,NaN,953.462830903772,803.65205506206,NaN,NaN,653.738008730483,808.883771293693,953.462830903772,803.65205506206,1041.10723677783,516.980120613425,795.549636358493,345.03883773512,556.142287229426,525.445215295702,0,0,0,4,0,0,0,NaN,vertical,vertical,vertical,horizontal,vertical,none
1c,6,100111,2,63,127,24,F,NA,variable,homogeneous,4,absent,0.643879890441895,1,horizontal,horizontal,1,1.09412913322449,green,3,NaN,676.373546837184,376.971974679454,NaN,NaN,923.626453162816,823.028025320546,1023.02802532055,476.373546837184,676.373546837184,376.971974679454,576.971974679454,723.626453162816,0,0,0,0,0,0,4,0,NaN,NaN,vertical,horizontal,horizontal,horizontal,none,none
1c,6,100111,2,64,128,24,F,NA,variable,homogeneous,6,absent,0.712746858596802,1,horizontal,horizontal,1,0.788239669799805,red,2,NaN,977.137884467044,783.431649086356,NaN,NaN,729.712474266665,845.121732464271,977.137884467044,783.431649086356,1047.42541020038,538.309916622085,870.287525733335,354.878267535729,622.862115532956,416.568350913644,552.574589799621,661.690083377915,0,4,0,0,0,0,horizontal,horizontal,vertical,horizontal,horizontal,horizontal
1c,6,100111,3,1,129,24,F,NA,variable,homogeneous,4,present,0.799542188644409,1,vertical,vertical,1,0.81176962852478,green,3,1,696.282156015671,367.045908301137,903.717843984329,832.954091698863,903.717843984329,832.954091698863,1032.95409169886,496.282156015671,696.282156015671,367.045908301137,567.045908301137,703.717843984329,0,0,0,0,0,0,4,0,NaN,NaN,horizontal,horizontal,vertical,horizontal,none,none
1c,6,100111,3,2,130,24,F,NA,variable,homogeneous,4,absent,0.563270807266235,1,horizontal,horizontal,1,0.776474690437317,green,3,NaN,704.475318678942,363.568117085469,NaN,NaN,895.524681321058,836.431882914531,1036.43188291453,504.475318678942,704.475318678942,363.568117085469,563.568117085469,695.524681321058,0,0,0,0,0,0,4,0,NaN,NaN,horizontal,horizontal,horizontal,horizontal,none,none
1c,6,100111,3,3,131,24,F,NA,variable,homogeneous,5,absent,0.807469129562378,0,vertical,horizontal,1,1.03530423641205,red,2,NaN,1041.10723677783,683.019879386575,NaN,NaN,795.549636358493,854.96116226488,1041.10723677783,683.019879386575,953.462830903772,396.34794493794,653.738008730483,391.116228706307,556.142287229426,674.554784704298,0,0,0,4,0,0,0,NaN,vertical,vertical,horizontal,vertical,horizontal,none
1c,6,100111,3,4,132,24,F,NA,variable,homogeneous,4,present,0.772793054580688,1,vertical,vertical,1,1.04706921577454,green,4,1,591.116228706307,746.261991269517,946.261991269517,808.883771293693,946.261991269517,808.883771293693,1008.88377129369,453.738008730483,653.738008730483,391.116228706307,591.116228706307,746.261991269517,0,0,0,0,0,0,0,4,NaN,NaN,vertical,horizontal,horizontal,vertical,none,none
1c,6,100111,3,5,133,24,F,NA,variable,homogeneous,5,present,1.08336806297302,1,vertical,vertical,1,0.952949380874634,red,3,2,861.690083377915,352.574589799621,1054.37883281626,582.212099195248,895.524681321058,836.431882914531,1054.37883281626,582.212099195248,861.690083377915,352.574589799621,583.747735480111,464.870587620533,604.658667004661,763.910840470068,0,0,0,0,4,0,0,NaN,horizontal,horizontal,vertical,horizontal,horizontal,none
1c,6,100111,3,6,134,24,F,NA,variable,homogeneous,6,present,1.0735239982605,1,vertical,vertical,1,0.611764979362488,red,2,4,973.909581815937,786.495193912888,874.554784704298,356.142287229426,725.445215295702,843.857712770574,973.909581815937,786.495193912888,1048.46436652023,542.637481142314,874.554784704298,356.142287229426,626.090418184063,413.504806087112,551.535633479765,657.362518857686,0,4,0,0,0,0,horizontal,vertical,vertical,vertical,vertical,vertical
1c,6,100111,3,7,135,24,F,NA,variable,homogeneous,5,absent,0.731467962265015,1,horizontal,horizontal,1,0.611764979362488,green,1,NaN,949.885239334581,806.299333565612,NaN,NaN,949.885239334581,806.299333565612,1042.51941165526,521.200666434388,800,345,557.480588344736,521.200666434388,650.114760665419,806.299333565612,0,0,4,0,0,0,0,NaN,horizontal,horizontal,horizontal,vertical,vertical,none
1c,6,100111,3,8,136,24,F,NA,variable,homogeneous,6,present,1.55080795288086,0,vertical,horizontal,1,0.623529958724976,red,6,5,653.738008730483,808.883771293693,545.970351986605,577.775285599347,907.767656743878,831.108485694346,1054.0296480134,622.224714400653,946.261991269517,391.116228706307,692.232343256122,368.891514305654,545.970351986605,577.775285599347,653.738008730483,808.883771293693,0,0,0,0,0,4,vertical,vertical,vertical,horizontal,vertical,vertical
1c,6,100111,3,9,137,24,F,NA,variable,homogeneous,3,absent,0.98799204826355,1,vertical,vertical,1,0.905889463424683,red,3,NaN,568.891514305654,707.767656743878,NaN,NaN,1008.88377129369,746.261991269517,822.224714400653,345.970351986605,568.891514305654,707.767656743878,0,0,0,0,0,0,0,0,4,NaN,NaN,NaN,vertical,vertical,vertical,none,none,none
1c,6,100111,3,10,138,24,F,NA,variable,homogeneous,5,present,1.18086695671082,1,vertical,vertical,1,1.04706921577454,green,1,4,874.554784704298,843.857712770574,596.34794493794,446.537169096228,874.554784704298,843.857712770574,1054.96116226488,604.450363641507,883.019879386575,358.892763222174,596.34794493794,446.537169096228,591.116228706307,746.261991269517,0,0,4,0,0,0,0,NaN,vertical,vertical,horizontal,horizontal,horizontal,none
1c,6,100111,3,11,139,24,F,NA,variable,homogeneous,3,present,0.580086231231689,1,vertical,vertical,1,0.764709711074829,green,1,2,822.224714400653,854.029648013395,1008.88377129369,453.738008730483,822.224714400653,854.029648013395,1008.88377129369,453.738008730483,568.891514305654,492.232343256122,0,0,0,0,0,0,4,0,0,NaN,NaN,NaN,vertical,horizontal,vertical,none,none,none
1c,6,100111,3,12,140,24,F,NA,variable,homogeneous,5,present,1.00030303001404,1,horizontal,horizontal,1,0.823534607887268,red,3,1,878.799333565612,357.480588344736,878.799333565612,842.519411655264,878.799333565612,842.519411655264,1055,600,878.799333565612,357.480588344736,593.700666434388,450.114760665419,593.700666434388,749.885239334581,0,0,0,0,4,0,0,NaN,horizontal,vertical,horizontal,horizontal,vertical,none
1c,6,100111,3,13,141,24,F,NA,variable,homogeneous,3,absent,0.897394895553589,1,vertical,vertical,1,1.03530423641205,green,2,NaN,1045.12173246427,670.287525733335,NaN,NaN,616.568350913644,777.137884467044,1045.12173246427,670.287525733335,738.309916622085,352.574589799621,0,0,0,0,0,0,0,4,0,NaN,NaN,NaN,vertical,vertical,horizontal,none,none,none
1c,6,100111,3,14,142,24,F,NA,variable,homogeneous,6,absent,0.580256938934326,1,vertical,vertical,1,0.835299587249756,red,2,NaN,992.450942956807,767.295052392579,NaN,NaN,751.343706178981,850.314931779154,992.450942956807,767.295052392579,1041.10723677783,516.980120613425,848.656293821019,349.685068220846,607.549057043193,432.704947607421,558.892763222174,683.019879386575,0,4,0,0,0,0,horizontal,vertical,horizontal,horizontal,horizontal,vertical
1c,6,100111,3,15,143,24,F,NA,variable,homogeneous,6,absent,0.824740886688232,1,horizontal,horizontal,1,0.847064566612244,red,1,NaN,786.654331158049,854.650531362416,NaN,NaN,786.654331158049,854.650531362416,1013.86099482608,738.882953928832,1027.20666366803,484.232422566416,813.345668841951,345.349468637584,586.139005173917,461.117046071168,572.793336331966,715.767577433584,4,0,0,0,0,0,horizontal,horizontal,vertical,vertical,horizontal,vertical
1c,6,100111,3,16,144,24,F,NA,variable,homogeneous,4,absent,0.602022886276245,1,vertical,vertical,1,0.81176962852478,green,1,NaN,725.445215295702,843.857712770574,NaN,NaN,725.445215295702,843.857712770574,1043.85771277057,674.554784704298,874.554784704298,356.142287229426,556.142287229426,525.445215295702,0,0,0,0,4,0,0,0,NaN,NaN,vertical,vertical,vertical,horizontal,none,none
1c,6,100111,3,17,145,24,F,NA,variable,homogeneous,5,present,1.17933106422424,1,vertical,vertical,1,0.658824896812439,red,5,2,554.878267535729,670.287525733335,1039.62161830041,687.215136548046,791.100628340862,854.844660889869,1039.62161830041,687.215136548046,956.993676208043,399.057257830286,657.405809614959,388.595418998464,554.878267535729,670.287525733335,0,0,0,0,0,0,4,NaN,vertical,vertical,horizontal,horizontal,vertical,none
1c,6,100111,3,18,146,24,F,NA,variable,homogeneous,5,present,0.976531982421875,1,horizontal,horizontal,1,0.670589876174927,green,2,4,1053.09926866854,568.923317431687,576.971974679454,476.373546837184,907.767656743878,831.108485694346,1053.09926866854,568.923317431687,848.656293821019,349.685068220846,576.971974679454,476.373546837184,613.504806087112,773.909581815937,0,0,0,4,0,0,0,NaN,vertical,horizontal,horizontal,horizontal,horizontal,none
1c,6,100111,3,19,147,24,F,NA,variable,homogeneous,6,absent,0.745018005371094,1,horizontal,horizontal,1,0.835299587249756,red,2,NaN,1053.60308331891,626.654758133252,NaN,NaN,903.717843984329,832.954091698863,1053.60308331891,626.654758133252,949.885239334581,393.700666434388,696.282156015671,367.045908301137,546.39691668109,573.345241866748,650.114760665419,806.299333565612,0,4,0,0,0,0,vertical,horizontal,horizontal,vertical,horizontal,horizontal
1c,6,100111,3,20,148,24,F,NA,variable,homogeneous,6,present,1.69703388214111,0,horizontal,vertical,1,0.647059917449951,green,2,6,1055,600,672.5,820.836477965032,927.5,820.836477965032,1055,600,927.5,379.163522034968,672.5,379.163522034968,545,600,672.5,820.836477965032,0,4,0,0,0,0,vertical,horizontal,horizontal,vertical,horizontal,horizontal
1c,6,100111,3,21,149,24,F,NA,variable,homogeneous,3,present,1.69240403175354,1,horizontal,horizontal,1,1.05883419513702,green,3,2,558.892763222174,516.980120613425,992.450942956807,432.704947607421,848.656293821019,850.314931779154,992.450942956807,432.704947607421,558.892763222174,516.980120613425,0,0,0,0,0,0,0,0,4,NaN,NaN,NaN,horizontal,vertical,horizontal,none,none,none
1c,6,100111,3,22,150,24,F,NA,variable,homogeneous,4,present,0.804889917373657,1,horizontal,horizontal,1,0.729414772987366,green,2,4,1036.43188291453,695.524681321058,563.568117085469,504.475318678942,704.475318678942,836.431882914531,1036.43188291453,695.524681321058,895.524681321058,363.568117085469,563.568117085469,504.475318678942,0,0,0,0,0,4,0,0,NaN,NaN,horizontal,horizontal,horizontal,horizontal,none,none
1c,6,100111,3,23,151,24,F,NA,variable,homogeneous,5,present,0.865607023239136,1,horizontal,horizontal,1,0.623529958724976,red,1,3,949.885239334581,806.299333565612,800,345,949.885239334581,806.299333565612,1042.51941165526,521.200666434388,800,345,557.480588344736,521.200666434388,650.114760665419,806.299333565612,0,0,4,0,0,0,0,NaN,horizontal,vertical,vertical,vertical,vertical,none
1c,6,100111,3,24,152,24,F,NA,variable,homogeneous,5,absent,1.24214720726013,1,vertical,vertical,1,0.752944731712341,green,2,NaN,1048.46436652023,542.637481142314,NaN,NaN,931.334709102064,818.577661679039,1048.46436652023,542.637481142314,822.224714400653,345.970351986605,565.271262369628,500.363562235235,632.704947607421,792.450942956807,0,0,0,4,0,0,0,NaN,horizontal,vertical,horizontal,vertical,horizontal,none
1c,6,100111,3,25,153,24,F,NA,variable,homogeneous,6,present,1.24447894096375,1,horizontal,horizontal,1,0.670589876174927,green,6,1,546.900731331463,631.076682568313,700.363562235235,834.728737630372,700.363562235235,834.728737630372,953.462830903772,803.65205506206,1053.09926866854,568.923317431687,899.636437764765,365.271262369628,646.537169096228,396.34794493794,546.900731331463,631.076682568313,0,0,0,0,0,4,vertical,vertical,horizontal,vertical,vertical,horizontal
1c,6,100111,3,26,154,24,F,NA,variable,homogeneous,3,absent,0.808781147003174,1,horizontal,horizontal,1,0.964714360237122,green,3,NaN,704.475318678942,363.568117085469,NaN,NaN,643.006323791957,800.942742169714,1052.5183575291,635.489140744817,704.475318678942,363.568117085469,0,0,0,0,0,0,0,0,4,NaN,NaN,NaN,vertical,horizontal,horizontal,none,none,none
1c,6,100111,3,27,155,24,F,NA,variable,homogeneous,3,present,0.623046159744263,1,horizontal,horizontal,1,0.894124484062195,red,1,2,831.076682568313,853.099268668537,1003.65205506206,446.537169096228,831.076682568313,853.099268668537,1003.65205506206,446.537169096228,565.271262369628,500.363562235235,0,0,0,0,0,0,4,0,0,NaN,NaN,NaN,horizontal,vertical,vertical,none,none,none
1c,6,100111,3,28,156,24,F,NA,variable,homogeneous,6,absent,0.683513879776001,1,horizontal,horizontal,1,1.00000929832458,green,4,NaN,919.715248510402,374.848363820974,NaN,NaN,680.284751489598,825.151636179026,935.129412379467,816.252264519889,1054.84466088987,591.100628340862,919.715248510402,374.848363820974,664.870587620533,383.747735480111,545.155339110131,608.899371659138,0,0,0,4,0,0,horizontal,horizontal,horizontal,horizontal,vertical,vertical
1c,6,100111,3,29,157,24,F,NA,variable,homogeneous,5,absent,0.757560014724731,1,horizontal,horizontal,1,0.800004649162293,red,2,NaN,1053.09926866854,568.923317431687,NaN,NaN,907.767656743878,831.108485694346,1053.09926866854,568.923317431687,848.656293821019,349.685068220846,576.971974679454,476.373546837184,613.504806087112,773.909581815937,0,0,0,4,0,0,0,NaN,vertical,horizontal,vertical,vertical,vertical,none
1c,6,100111,3,30,158,24,F,NA,variable,homogeneous,5,present,0.671586036682129,1,horizontal,horizontal,1,0.729414772987366,green,5,1,646.537169096228,803.65205506206,946.261991269517,808.883771293693,946.261991269517,808.883771293693,1043.85771277057,525.445215295702,804.450363641507,345.03883773512,558.892763222174,516.980120613425,646.537169096228,803.65205506206,0,0,0,0,0,0,4,NaN,horizontal,horizontal,vertical,vertical,horizontal,none
1c,6,100111,3,31,159,24,F,NA,variable,homogeneous,4,absent,0.67131519317627,0,vertical,horizontal,1,0.894124484062195,red,1,NaN,887.215136548046,839.621618300407,NaN,NaN,887.215136548046,839.621618300407,1039.62161830041,512.784863451954,712.784863451954,360.378381699593,560.378381699593,687.215136548046,0,0,0,0,4,0,0,0,NaN,NaN,vertical,vertical,vertical,vertical,none,none
1c,6,100111,3,32,160,24,F,NA,variable,homogeneous,6,present,1.2969799041748,1,horizontal,horizontal,1,0.81176962852478,red,4,1,804.450363641507,345.03883773512,795.549636358493,854.96116226488,795.549636358493,854.96116226488,1018.57766167904,731.334709102064,1023.02802532055,476.373546837184,804.450363641507,345.03883773512,581.422338320961,468.665290897936,576.971974679454,723.626453162816,0,0,0,4,0,0,vertical,horizontal,vertical,horizontal,vertical,horizontal
1c,6,100111,3,33,161,24,F,NA,variable,homogeneous,4,absent,0.762976884841919,1,horizontal,horizontal,1,1.01177427768707,red,4,NaN,581.422338320961,468.665290897936,NaN,NaN,668.665290897936,818.577661679039,1018.57766167904,731.334709102064,931.334709102064,381.422338320961,581.422338320961,468.665290897936,0,0,0,0,0,0,0,4,NaN,NaN,vertical,horizontal,horizontal,horizontal,none,none
1c,6,100111,3,34,162,24,F,NA,variable,homogeneous,6,absent,1.06121516227722,1,vertical,vertical,1,0.91765444278717,green,6,NaN,650.114760665419,806.299333565612,NaN,NaN,903.717843984329,832.954091698863,1053.60308331891,626.654758133252,949.885239334581,393.700666434388,696.282156015671,367.045908301137,546.39691668109,573.345241866748,650.114760665419,806.299333565612,0,0,0,0,0,4,vertical,vertical,vertical,vertical,horizontal,vertical
1c,6,100111,3,35,163,24,F,NA,variable,homogeneous,4,absent,0.78697395324707,1,horizontal,horizontal,1,0.611764979362488,green,3,NaN,938.882953928832,386.139005173917,NaN,NaN,661.117046071168,813.860994826083,1013.86099482608,738.882953928832,938.882953928832,386.139005173917,586.139005173917,461.117046071168,0,0,0,0,0,0,4,0,NaN,NaN,horizontal,vertical,horizontal,vertical,none,none
1c,6,100111,3,36,164,24,F,NA,variable,homogeneous,6,absent,0.711771011352539,1,vertical,vertical,1,0.835299587249756,green,1,NaN,878.799333565612,842.519411655264,NaN,NaN,878.799333565612,842.519411655264,1049.42763818712,653.017481158529,970.628304621509,410.498069503264,721.200666434388,357.480588344736,550.57236181288,546.982518841471,629.371695378491,789.501930496736,4,0,0,0,0,0,vertical,horizontal,vertical,horizontal,vertical,horizontal
1c,6,100111,3,37,165,24,F,NA,variable,homogeneous,3,absent,0.941351890563965,1,horizontal,horizontal,1,0.964714360237122,red,2,NaN,935.129412379467,383.747735480111,NaN,NaN,919.715248510402,825.151636179026,935.129412379467,383.747735480111,545.155339110131,591.100628340862,0,0,0,0,0,0,0,4,0,NaN,NaN,NaN,vertical,horizontal,vertical,none,none,none
1c,6,100111,3,38,166,24,F,NA,variable,homogeneous,3,present,1.3940761089325,1,vertical,vertical,1,0.682354855537414,red,2,3,1051.86052685176,639.890788585259,708.616172865948,361.936991243214,639.523300282292,798.172220171528,1051.86052685176,639.890788585259,708.616172865948,361.936991243214,0,0,0,0,0,0,0,4,0,NaN,NaN,NaN,vertical,vertical,horizontal,none,none,none
1c,6,100111,3,39,167,24,F,NA,variable,homogeneous,5,absent,0.690490961074829,1,horizontal,horizontal,1,0.623529958724976,red,5,NaN,560.378381699593,687.215136548046,NaN,NaN,808.899371659138,854.844660889869,1045.12173246427,670.287525733335,942.594190385041,388.595418998464,643.006323791957,399.057257830286,560.378381699593,687.215136548046,0,0,0,0,0,0,4,NaN,vertical,horizontal,vertical,horizontal,horizontal,none
1c,6,100111,3,40,168,24,F,NA,variable,homogeneous,6,present,1.09065103530884,1,vertical,vertical,1,0.905889463424683,green,2,3,1011.40458100154,742.594190385041,1029.19248180629,488.215357568785,782.212099195248,854.378832816255,1011.40458100154,742.594190385041,1029.19248180629,488.215357568785,817.787900804752,345.621167183745,588.595418998464,457.40580961496,570.807518193712,711.784642431215,0,4,0,0,0,0,vertical,vertical,horizontal,horizontal,horizontal,vertical
1c,6,100111,3,41,169,24,F,NA,variable,homogeneous,3,present,0.70047402381897,1,horizontal,horizontal,1,0.800004649162293,red,3,2,568.891514305654,707.767656743878,822.224714400653,345.970351986605,1008.88377129369,746.261991269517,822.224714400653,345.970351986605,568.891514305654,707.767656743878,0,0,0,0,0,0,0,0,4,NaN,NaN,NaN,horizontal,vertical,horizontal,none,none,none
1c,6,100111,3,42,170,24,F,NA,variable,homogeneous,5,present,0.871827840805054,1,vertical,vertical,1,0.858829545974731,green,4,5,746.982518841471,350.57236181288,546.39691668109,573.345241866748,696.282156015671,832.954091698863,989.501930496736,770.628304621509,1020.83647796503,472.5,746.982518841471,350.57236181288,546.39691668109,573.345241866748,0,0,0,0,0,4,0,NaN,horizontal,horizontal,vertical,vertical,horizontal,none
1c,6,100111,3,43,171,24,F,NA,variable,homogeneous,6,absent,0.883202075958252,1,vertical,vertical,1,0.682354855537414,red,4,NaN,839.890788585259,348.13947314824,NaN,NaN,760.109211414741,851.86052685176,998.172220171528,760.476699717708,1038.06300875679,508.616172865948,839.890788585259,348.13947314824,601.827779828472,439.523300282291,561.936991243214,691.383827134052,0,0,0,4,0,0,horizontal,vertical,horizontal,vertical,horizontal,vertical
1c,6,100111,3,44,172,24,F,NA,variable,homogeneous,4,present,0.713786125183105,1,vertical,vertical,1,0.635294938087463,red,4,3,561.936991243214,508.616172865948,891.383827134052,361.936991243214,708.616172865948,838.063008756786,1038.06300875679,691.383827134052,891.383827134052,361.936991243214,561.936991243214,508.616172865948,0,0,0,0,0,0,0,4,NaN,NaN,horizontal,horizontal,vertical,vertical,none,none
1c,6,100111,3,45,173,24,F,NA,variable,homogeneous,3,present,1.12189483642578,1,horizontal,horizontal,1,0.882359504699707,green,3,1,664.870587620533,383.747735480111,680.284751489598,825.151636179026,680.284751489598,825.151636179026,1054.84466088987,591.100628340862,664.870587620533,383.747735480111,0,0,0,0,0,0,0,0,4,NaN,NaN,NaN,vertical,vertical,horizontal,none,none,none
1c,6,100111,3,46,174,24,F,NA,variable,homogeneous,6,present,0.735987186431885,1,vertical,vertical,1,0.776474690437317,green,1,6,887.215136548046,839.621618300407,636.089159529932,795.341332995339,887.215136548046,839.621618300407,1051.12597701811,644.280285305067,963.910840470068,404.658667004661,712.784863451954,360.378381699593,548.874022981887,555.719714694933,636.089159529932,795.341332995339,4,0,0,0,0,0,vertical,horizontal,horizontal,vertical,vertical,vertical
1c,6,100111,3,47,175,24,F,NA,variable,homogeneous,5,absent,1.29799795150757,1,horizontal,horizontal,1,0.752944731712341,green,4,NaN,650.114760665419,393.700666434388,NaN,NaN,800,855,1042.51941165526,678.799333565612,949.885239334581,393.700666434388,650.114760665419,393.700666434388,557.480588344736,678.799333565612,0,0,0,0,0,4,0,NaN,vertical,horizontal,horizontal,horizontal,horizontal,none
1c,6,100111,3,48,176,24,F,NA,variable,homogeneous,4,absent,0.732316970825195,1,vertical,vertical,1,0.81176962852478,red,1,NaN,870.287525733335,845.121732464271,NaN,NaN,870.287525733335,845.121732464271,1045.12173246427,529.712474266665,729.712474266665,354.878267535729,554.878267535729,670.287525733335,0,0,0,0,4,0,0,0,NaN,NaN,vertical,horizontal,horizontal,horizontal,none,none
1c,6,100111,3,49,177,24,F,NA,variable,homogeneous,5,absent,0.457798957824707,0,vertical,horizontal,1,0.941184401512146,red,4,NaN,583.747735480111,464.870587620533,NaN,NaN,895.524681321058,836.431882914531,1054.37883281626,582.212099195248,861.690083377915,352.574589799621,583.747735480111,464.870587620533,604.658667004661,763.910840470068,0,0,0,0,0,4,0,NaN,horizontal,horizontal,horizontal,vertical,horizontal,none
1c,6,100111,3,50,178,24,F,NA,variable,homogeneous,3,present,1.04191994667053,1,vertical,vertical,1,0.929419422149658,red,1,3,791.100628340862,854.844660889869,583.747735480111,464.870587620533,791.100628340862,854.844660889869,1025.15163617903,480.284751489598,583.747735480111,464.870587620533,0,0,0,0,0,0,4,0,0,NaN,NaN,NaN,vertical,horizontal,horizontal,none,none,none
1c,6,100111,3,51,179,24,F,NA,variable,homogeneous,5,absent,0.747880935668945,1,vertical,vertical,1,0.647059917449951,green,5,NaN,548.874022981887,644.280285305067,NaN,NaN,764.510859255183,852.518357529101,1029.19248180629,711.784642431215,977.137884467044,416.568350913644,680.284751489598,374.848363820974,548.874022981887,644.280285305067,0,0,0,0,0,0,4,NaN,horizontal,vertical,vertical,vertical,vertical,none
1c,6,100111,3,52,180,24,F,NA,variable,homogeneous,3,absent,0.946548938751221,1,vertical,vertical,1,0.976479339599609,red,3,NaN,729.712474266665,354.878267535729,NaN,NaN,622.862115532956,783.431649086356,1047.42541020038,661.690083377915,729.712474266665,354.878267535729,0,0,0,0,0,0,0,0,4,NaN,NaN,NaN,horizontal,vertical,vertical,none,none,none
1c,6,100111,3,53,181,24,F,NA,variable,homogeneous,4,present,0.622983932495117,0,horizontal,vertical,1,1.082364153862,red,3,1,746.982518841471,350.57236181288,853.017481158529,849.42763818712,853.017481158529,849.42763818712,1049.42763818712,546.982518841471,746.982518841471,350.57236181288,550.57236181288,653.017481158529,0,0,0,0,0,0,4,0,NaN,NaN,vertical,vertical,horizontal,vertical,none,none
1c,6,100111,3,54,182,24,F,NA,variable,homogeneous,3,absent,0.676744937896729,1,horizontal,horizontal,1,1.04706921577454,green,2,NaN,915.767577433584,372.793336331966,NaN,NaN,938.882953928832,813.860994826083,915.767577433584,372.793336331966,545.349468637584,613.345668841951,0,0,0,0,0,0,0,4,0,NaN,NaN,NaN,vertical,horizontal,horizontal,none,none,none
1c,6,100111,3,55,183,24,F,NA,variable,homogeneous,6,absent,0.732510089874268,1,horizontal,horizontal,1,0.894124484062195,green,6,NaN,668.665290897936,818.577661679039,NaN,NaN,923.626453162816,823.028025320546,1054.96116226488,604.450363641507,931.334709102064,381.422338320961,676.373546837184,376.971974679454,545.03883773512,595.549636358493,668.665290897936,818.577661679039,0,0,0,0,0,4,vertical,vertical,horizontal,vertical,horizontal,horizontal
1c,6,100111,3,56,184,24,F,NA,variable,homogeneous,3,absent,0.643549919128418,1,vertical,vertical,1,0.81176962852478,green,2,NaN,956.993676208043,399.057257830286,NaN,NaN,895.524681321058,836.431882914531,956.993676208043,399.057257830286,547.481642470899,564.510859255183,0,0,0,0,0,0,0,4,0,NaN,NaN,NaN,horizontal,vertical,vertical,none,none,none
1c,6,100111,3,57,185,24,F,NA,variable,homogeneous,4,absent,0.540364027023315,1,vertical,vertical,1,0.800004649162293,green,4,NaN,545.621167183745,617.787900804752,NaN,NaN,817.787900804752,854.378832816255,1054.37883281626,582.212099195248,782.212099195248,345.621167183745,545.621167183745,617.787900804752,0,0,0,0,0,0,0,4,NaN,NaN,horizontal,horizontal,horizontal,vertical,none,none
1c,6,100111,3,58,186,24,F,NA,variable,homogeneous,4,present,0.692173004150391,1,vertical,vertical,1,0.823534607887268,red,3,2,835.489140744817,347.4816424709,1052.5183575291,635.489140744817,764.510859255183,852.518357529101,1052.5183575291,635.489140744817,835.489140744817,347.4816424709,547.481642470899,564.510859255183,0,0,0,0,0,0,4,0,NaN,NaN,vertical,horizontal,vertical,vertical,none,none
1c,6,100111,3,59,187,24,F,NA,variable,homogeneous,4,absent,0.793797016143799,1,horizontal,horizontal,1,1.01177427768707,red,2,NaN,989.501930496736,429.371695378491,NaN,NaN,970.628304621509,789.501930496736,989.501930496736,429.371695378491,629.371695378491,410.498069503264,610.498069503264,770.628304621509,0,0,0,0,0,4,0,0,NaN,NaN,horizontal,horizontal,horizontal,horizontal,none,none
1c,6,100111,3,60,188,24,F,NA,variable,homogeneous,3,absent,0.986284017562866,1,horizontal,horizontal,1,0.6,red,1,NaN,835.489140744817,852.518357529101,NaN,NaN,835.489140744817,852.518357529101,1000.94274216971,443.006323791957,563.568117085469,504.475318678942,0,0,0,0,0,0,4,0,0,NaN,NaN,NaN,horizontal,vertical,vertical,none,none,none
1c,6,100111,3,61,189,24,F,NA,variable,homogeneous,6,present,0.510025024414062,1,horizontal,horizontal,1,1.00000929832458,red,5,2,632.704947607421,407.549057043193,967.295052392579,792.450942956807,716.980120613425,841.107236777826,967.295052392579,792.450942956807,1050.31493177915,551.343706178981,883.019879386575,358.892763222174,632.704947607421,407.549057043193,549.685068220846,648.656293821019,0,0,0,0,4,0,horizontal,horizontal,vertical,horizontal,horizontal,horizontal
1c,6,100111,3,62,190,24,F,NA,variable,homogeneous,4,present,0.618854999542236,1,horizontal,horizontal,1,0.717649793624878,green,2,3,1039.62161830041,512.784863451954,712.784863451954,360.378381699593,887.215136548046,839.621618300407,1039.62161830041,512.784863451954,712.784863451954,360.378381699593,560.378381699593,687.215136548046,0,0,0,0,0,4,0,0,NaN,NaN,vertical,horizontal,horizontal,vertical,none,none
1c,6,100111,3,63,191,24,F,NA,variable,homogeneous,3,present,0.809380054473877,1,vertical,vertical,1,0.905889463424683,green,1,2,942.594190385041,811.404581001536,911.784642431215,370.807518193712,942.594190385041,811.404581001536,911.784642431215,370.807518193712,545.621167183745,617.787900804752,0,0,0,0,0,0,4,0,0,NaN,NaN,NaN,vertical,horizontal,vertical,none,none,none
1c,6,100111,3,64,192,24,F,NA,variable,homogeneous,4,present,1.17262887954712,0,horizontal,vertical,1,0.952949380874634,red,3,4,935.129412379467,383.747735480111,583.747735480111,464.870587620533,664.870587620533,816.252264519889,1016.25226451989,735.129412379467,935.129412379467,383.747735480111,583.747735480111,464.870587620533,0,0,0,0,0,0,4,0,NaN,NaN,horizontal,horizontal,horizontal,vertical,none,none
1c,6,100111,4,1,193,24,F,NA,variable,homogeneous,6,present,0.812314033508301,1,vertical,vertical,1,0.929419422149658,red,5,6,579.163522034968,472.5,579.163522034968,727.5,800,855,1020.83647796503,727.5,1020.83647796503,472.5,800,345,579.163522034968,472.5,579.163522034968,727.5,0,0,0,0,4,0,horizontal,vertical,vertical,vertical,vertical,horizontal
1c,6,100111,4,2,194,24,F,NA,variable,homogeneous,4,absent,1.07466292381287,1,horizontal,horizontal,1,1.082364153862,green,3,NaN,977.137884467044,416.568350913644,NaN,NaN,622.862115532956,783.431649086356,983.431649086356,777.137884467044,977.137884467044,416.568350913644,616.568350913644,422.862115532956,0,0,0,0,0,0,4,0,NaN,NaN,horizontal,vertical,horizontal,horizontal,none,none
1c,6,100111,4,3,195,24,F,NA,variable,homogeneous,3,present,1.33679604530334,1,vertical,vertical,1,0.623529958724976,green,2,3,1050.31493177915,648.656293821019,716.980120613425,358.892763222174,632.704947607421,792.450942956807,1050.31493177915,648.656293821019,716.980120613425,358.892763222174,0,0,0,0,0,0,0,4,0,NaN,NaN,NaN,vertical,vertical,horizontal,none,none,none
1c,6,100111,4,4,196,24,F,NA,variable,homogeneous,4,present,0.786594152450562,1,horizontal,horizontal,1,0.952949380874634,red,2,1,1027.20666366803,484.232422566416,915.767577433584,827.206663668034,915.767577433584,827.206663668034,1027.20666366803,484.232422566416,684.232422566416,372.793336331966,572.793336331966,715.767577433584,0,0,0,0,0,4,0,0,NaN,NaN,vertical,horizontal,vertical,horizontal,none,none
1c,6,100111,4,5,197,24,F,NA,variable,homogeneous,4,present,0.550513029098511,1,vertical,vertical,1,0.800004649162293,green,2,1,1041.10723677783,516.980120613425,883.019879386575,841.107236777826,883.019879386575,841.107236777826,1041.10723677783,516.980120613425,716.980120613425,358.892763222174,558.892763222174,683.019879386575,0,0,0,0,0,4,0,0,NaN,NaN,horizontal,vertical,horizontal,vertical,none,none
1c,6,100111,4,6,198,24,F,NA,variable,homogeneous,6,absent,0.55613899230957,1,vertical,vertical,1,0.929419422149658,green,3,NaN,983.431649086356,422.862115532956,NaN,NaN,861.690083377915,847.425410200379,1045.12173246427,670.287525733335,983.431649086356,422.862115532956,738.309916622085,352.574589799621,554.878267535729,529.712474266665,616.568350913644,777.137884467044,0,0,4,0,0,0,vertical,horizontal,vertical,vertical,horizontal,horizontal
1c,6,100111,4,7,199,24,F,NA,variable,homogeneous,4,absent,0.491734027862549,1,vertical,vertical,1,0.611764979362488,red,2,NaN,1038.06300875679,508.616172865948,NaN,NaN,891.383827134052,838.063008756786,1038.06300875679,508.616172865948,708.616172865948,361.936991243214,561.936991243214,691.383827134052,0,0,0,0,0,4,0,0,NaN,NaN,horizontal,vertical,horizontal,vertical,none,none
1c,6,100111,4,8,200,24,F,NA,variable,homogeneous,6,absent,1.03295707702637,1,horizontal,horizontal,1,0.764709711074829,green,4,NaN,895.524681321058,363.568117085469,NaN,NaN,704.475318678942,836.431882914531,956.993676208043,800.942742169714,1052.5183575291,564.510859255183,895.524681321058,363.568117085469,643.006323791957,399.057257830286,547.481642470899,635.489140744817,0,0,0,4,0,0,vertical,vertical,horizontal,horizontal,vertical,horizontal
1c,6,100111,4,9,201,24,F,NA,variable,homogeneous,5,present,0.712311029434204,1,horizontal,horizontal,1,0.941184401512146,green,5,3,546.900731331463,568.923317431687,1023.02802532055,476.373546837184,692.232343256122,831.108485694346,986.495193912888,773.909581815937,1023.02802532055,476.373546837184,751.343706178981,349.685068220846,546.900731331463,568.923317431687,0,0,0,0,0,0,4,NaN,vertical,vertical,horizontal,horizontal,horizontal,none
1c,6,100111,4,10,202,24,F,NA,variable,homogeneous,4,absent,0.684455156326294,0,vertical,horizontal,1,0.870594525337219,green,4,NaN,545.970351986605,577.775285599347,NaN,NaN,777.775285599347,854.029648013395,1054.0296480134,622.224714400653,822.224714400653,345.970351986605,545.970351986605,577.775285599347,0,0,0,0,0,0,0,4,NaN,NaN,horizontal,vertical,vertical,vertical,none,none
1c,6,100111,4,11,203,24,F,NA,variable,homogeneous,4,present,0.969980955123901,1,horizontal,horizontal,1,0.988244318962097,green,2,1,1049.42763818712,653.017481158529,746.982518841471,849.42763818712,746.982518841471,849.42763818712,1049.42763818712,653.017481158529,853.017481158529,350.57236181288,550.57236181288,546.982518841471,0,0,0,0,0,4,0,0,NaN,NaN,horizontal,horizontal,vertical,horizontal,none,none
1c,6,100111,4,12,204,24,F,NA,variable,homogeneous,6,absent,0.660344839096069,1,vertical,vertical,1,0.941184401512146,red,5,NaN,657.405809614959,388.595418998464,NaN,NaN,688.215357568785,829.192481806288,942.594190385041,811.404581001536,1054.37883281626,582.212099195248,911.784642431215,370.807518193712,657.405809614959,388.595418998464,545.621167183745,617.787900804752,0,0,0,0,4,0,horizontal,vertical,horizontal,vertical,vertical,vertical
1c,6,100111,4,13,205,24,F,NA,variable,homogeneous,6,absent,1.02366709709167,1,vertical,vertical,1,0.894124484062195,green,2,NaN,967.295052392579,792.450942956807,NaN,NaN,716.980120613425,841.107236777826,967.295052392579,792.450942956807,1050.31493177915,551.343706178981,883.019879386575,358.892763222174,632.704947607421,407.549057043193,549.685068220846,648.656293821019,0,4,0,0,0,0,horizontal,vertical,horizontal,vertical,horizontal,horizontal
1c,6,100111,4,14,206,24,F,NA,variable,homogeneous,5,present,1.39585900306702,1,horizontal,horizontal,1,0.776474690437317,red,4,2,725.445215295702,356.142287229426,1003.65205506206,753.462830903772,716.980120613425,841.107236777826,1003.65205506206,753.462830903772,1008.88377129369,453.738008730483,725.445215295702,356.142287229426,545.03883773512,595.549636358493,0,0,0,0,0,4,0,NaN,vertical,vertical,horizontal,horizontal,vertical,none
1c,6,100111,4,15,207,24,F,NA,variable,homogeneous,5,present,0.781107902526855,1,vertical,vertical,1,1.07059917449951,red,4,3,716.980120613425,358.892763222174,1003.65205506206,446.537169096228,725.445215295702,843.857712770574,1008.88377129369,746.261991269517,1003.65205506206,446.537169096228,716.980120613425,358.892763222174,545.03883773512,604.450363641507,0,0,0,0,0,4,0,NaN,vertical,vertical,vertical,vertical,vertical,none
1c,6,100111,4,16,208,24,F,NA,variable,homogeneous,5,absent,0.963490009307861,1,vertical,vertical,1,0.717649793624878,red,4,NaN,791.100628340862,345.155339110131,NaN,NaN,657.405809614959,811.404581001536,956.993676208043,800.942742169714,1039.62161830041,512.784863451954,791.100628340862,345.155339110131,554.878267535729,529.712474266665,0,0,0,0,0,4,0,NaN,horizontal,horizontal,horizontal,vertical,vertical,none
1c,6,100111,4,17,209,24,F,NA,variable,homogeneous,6,present,1.23978900909424,1,vertical,vertical,1,0.635294938087463,red,2,5,980.31222920257,780.31222920257,619.68777079743,419.68777079743,734.001143498857,846.311085703712,980.31222920257,780.31222920257,1046.31108570371,534.001143498857,865.998856501143,353.688914296288,619.68777079743,419.68777079743,553.688914296288,665.998856501143,0,4,0,0,0,0,vertical,vertical,horizontal,vertical,horizontal,vertical
1c,6,100111,4,18,210,24,F,NA,variable,homogeneous,5,present,0.857188940048218,0,vertical,horizontal,1,0.823534607887268,green,4,3,616.568350913644,422.862115532956,911.784642431215,370.807518193712,844.280285305067,851.125977018113,1052.5183575291,635.489140744817,911.784642431215,370.807518193712,616.568350913644,422.862115532956,574.848363820974,719.715248510402,0,0,0,0,0,4,0,NaN,horizontal,horizontal,vertical,vertical,horizontal,none
1c,6,100111,4,19,211,24,F,NA,variable,homogeneous,4,present,0.674633979797363,1,vertical,vertical,1,0.611764979362488,green,4,3,579.163522034968,472.5,927.5,379.163522034968,672.5,820.836477965032,1020.83647796503,727.5,927.5,379.163522034968,579.163522034968,472.5,0,0,0,0,0,0,0,4,NaN,NaN,horizontal,horizontal,vertical,vertical,none,none
1c,6,100111,4,20,212,24,F,NA,variable,homogeneous,3,absent,0.943804025650024,1,vertical,vertical,1,0.776474690437317,green,1,NaN,593.700666434388,749.885239334581,NaN,NaN,593.700666434388,749.885239334581,1032.95409169886,703.717843984329,773.345241866748,346.39691668109,0,0,0,0,0,0,4,0,0,NaN,NaN,NaN,vertical,vertical,vertical,none,none,none
1c,6,100111,4,21,213,24,F,NA,variable,homogeneous,6,present,0.687011003494263,1,vertical,vertical,1,1.00000929832458,green,6,3,545.155339110131,608.899371659138,1054.84466088987,591.100628340862,680.284751489598,825.151636179026,935.129412379467,816.252264519889,1054.84466088987,591.100628340862,919.715248510402,374.848363820974,664.870587620533,383.747735480111,545.155339110131,608.899371659138,0,0,0,0,0,4,horizontal,horizontal,horizontal,vertical,vertical,vertical
1c,6,100111,4,22,214,24,F,NA,variable,homogeneous,5,absent,1.13029599189758,1,horizontal,horizontal,1,1.07059917449951,green,3,NaN,857.362518857686,351.535633479765,NaN,NaN,899.636437764765,834.728737630372,1054.0296480134,577.775285599347,857.362518857686,351.535633479765,581.422338320961,468.665290897936,607.549057043193,767.295052392579,0,0,0,0,4,0,0,NaN,vertical,vertical,horizontal,vertical,horizontal,none
1c,6,100111,4,23,215,24,F,NA,variable,homogeneous,6,absent,0.822586059570312,1,vertical,vertical,1,0.670589876174927,red,5,NaN,583.747735480111,464.870587620533,NaN,NaN,791.100628340862,854.844660889869,1016.25226451989,735.129412379467,1025.15163617903,480.284751489598,808.899371659138,345.155339110131,583.747735480111,464.870587620533,574.848363820974,719.715248510402,0,0,0,0,4,0,vertical,vertical,horizontal,vertical,vertical,vertical
1c,6,100111,4,24,216,24,F,NA,variable,homogeneous,4,absent,0.793874979019165,1,horizontal,horizontal,1,0.929419422149658,green,4,NaN,549.685068220846,648.656293821019,NaN,NaN,848.656293821019,850.314931779154,1050.31493177915,551.343706178981,751.343706178981,349.685068220846,549.685068220846,648.656293821019,0,0,0,0,0,0,0,4,NaN,NaN,horizontal,horizontal,vertical,horizontal,none,none
1c,6,100111,4,25,217,24,F,NA,variable,homogeneous,4,absent,0.673923969268799,1,vertical,vertical,1,0.800004649162293,green,4,NaN,558.892763222174,516.980120613425,NaN,NaN,716.980120613425,841.107236777826,1041.10723677783,683.019879386575,883.019879386575,358.892763222174,558.892763222174,516.980120613425,0,0,0,0,0,0,0,4,NaN,NaN,vertical,horizontal,vertical,vertical,none,none
1c,6,100111,4,26,218,24,F,NA,variable,homogeneous,4,present,0.955591917037964,1,vertical,vertical,1,1.01177427768707,red,2,1,1052.5183575291,564.510859255183,835.489140744817,852.518357529101,835.489140744817,852.518357529101,1052.5183575291,564.510859255183,764.510859255183,347.4816424709,547.481642470899,635.489140744817,0,0,0,0,0,4,0,0,NaN,NaN,vertical,vertical,horizontal,horizontal,none,none
1c,6,100111,4,27,219,24,F,NA,variable,homogeneous,3,present,0.841583013534546,1,horizontal,horizontal,1,0.91765444278717,green,3,2,545.970351986605,577.775285599347,946.261991269517,391.116228706307,907.767656743878,831.108485694346,946.261991269517,391.116228706307,545.970351986605,577.775285599347,0,0,0,0,0,0,0,0,4,NaN,NaN,NaN,horizontal,horizontal,horizontal,none,none,none
1c,6,100111,4,28,220,24,F,NA,variable,homogeneous,3,present,0.712147951126099,1,vertical,vertical,1,0.882359504699707,red,1,3,657.405809614959,811.404581001536,688.215357568785,370.807518193712,657.405809614959,811.404581001536,1054.37883281626,617.787900804752,688.215357568785,370.807518193712,0,0,0,0,0,0,4,0,0,NaN,NaN,NaN,vertical,vertical,vertical,none,none,none
1c,6,100111,4,29,221,24,F,NA,variable,homogeneous,5,absent,1.29714298248291,1,vertical,vertical,1,0.929419422149658,red,2,NaN,953.462830903772,803.65205506206,NaN,NaN,653.738008730483,808.883771293693,953.462830903772,803.65205506206,1041.10723677783,516.980120613425,795.549636358493,345.03883773512,556.142287229426,525.445215295702,0,0,0,4,0,0,0,NaN,vertical,vertical,horizontal,horizontal,horizontal,none
1c,6,100111,4,30,222,24,F,NA,variable,homogeneous,3,absent,0.585636138916016,1,vertical,vertical,1,0.717649793624878,green,3,NaN,546.39691668109,573.345241866748,NaN,NaN,903.717843984329,832.954091698863,949.885239334581,393.700666434388,546.39691668109,573.345241866748,0,0,0,0,0,0,0,0,4,NaN,NaN,NaN,horizontal,horizontal,vertical,none,none,none
1c,6,100111,4,31,223,24,F,NA,variable,homogeneous,6,present,1.10174918174744,0,horizontal,vertical,1,0.623529958724976,green,3,2,1036.43188291453,504.475318678942,1000.94274216971,756.993676208043,764.510859255183,852.518357529101,1000.94274216971,756.993676208043,1036.43188291453,504.475318678942,835.489140744817,347.4816424709,599.057257830286,443.006323791957,563.568117085469,695.524681321058,0,0,4,0,0,0,vertical,horizontal,horizontal,horizontal,vertical,vertical
1c,6,100111,4,32,224,24,F,NA,variable,homogeneous,6,present,1.87373495101929,0,vertical,horizontal,1,0.882359504699707,green,1,4,708.616172865948,838.063008756786,891.383827134052,361.936991243214,708.616172865948,838.063008756786,960.476699717708,798.172220171528,1051.86052685176,560.109211414741,891.383827134052,361.936991243214,639.523300282292,401.827779828472,548.13947314824,639.890788585259,4,0,0,0,0,0,vertical,horizontal,vertical,vertical,vertical,horizontal
1c,6,100111,4,33,225,24,F,NA,variable,homogeneous,3,absent,0.786451101303101,1,horizontal,horizontal,1,0.964714360237122,red,1,NaN,791.100628340862,854.844660889869,NaN,NaN,791.100628340862,854.844660889869,1025.15163617903,480.284751489598,583.747735480111,464.870587620533,0,0,0,0,0,0,4,0,0,NaN,NaN,NaN,horizontal,horizontal,vertical,none,none,none
1c,6,100111,4,34,226,24,F,NA,variable,homogeneous,5,absent,0.771602869033813,1,horizontal,horizontal,1,1.05883419513702,green,4,NaN,581.422338320961,468.665290897936,NaN,NaN,899.636437764765,834.728737630372,1054.0296480134,577.775285599347,857.362518857686,351.535633479765,581.422338320961,468.665290897936,607.549057043193,767.295052392579,0,0,0,0,0,4,0,NaN,horizontal,horizontal,horizontal,horizontal,horizontal,none
1c,6,100111,4,35,227,24,F,NA,variable,homogeneous,6,absent,1.10251712799072,1,horizontal,horizontal,1,0.964714360237122,green,3,NaN,1008.88377129369,453.738008730483,NaN,NaN,822.224714400653,854.029648013395,1031.10848569435,707.767656743878,1008.88377129369,453.738008730483,777.775285599347,345.970351986605,568.891514305654,492.232343256122,591.116228706307,746.261991269517,0,0,4,0,0,0,vertical,horizontal,horizontal,vertical,vertical,horizontal
1c,6,100111,4,36,228,24,F,NA,variable,homogeneous,5,absent,0.973635911941528,1,vertical,vertical,1,0.847064566612244,green,1,NaN,716.980120613425,841.107236777826,NaN,NaN,716.980120613425,841.107236777826,1003.65205506206,753.462830903772,1008.88377129369,453.738008730483,725.445215295702,356.142287229426,545.03883773512,595.549636358493,0,0,4,0,0,0,0,NaN,vertical,horizontal,vertical,horizontal,horizontal,none
1c,6,100111,4,37,229,24,F,NA,variable,homogeneous,5,present,1.13779497146606,1,horizontal,horizontal,1,0.635294938087463,green,3,5,1038.06300875679,508.616172865948,553.688914296288,534.001143498857,661.117046071168,813.860994826083,960.476699717708,798.172220171528,1038.06300875679,508.616172865948,786.654331158049,345.349468637584,553.688914296288,534.001143498857,0,0,0,0,4,0,0,NaN,vertical,vertical,horizontal,horizontal,horizontal,none
1c,6,100111,4,38,230,24,F,NA,variable,homogeneous,3,present,1.03677010536194,1,horizontal,horizontal,1,0.6,green,2,3,1008.88377129369,453.738008730483,568.891514305654,492.232343256122,822.224714400653,854.029648013395,1008.88377129369,453.738008730483,568.891514305654,492.232343256122,0,0,0,0,0,0,0,4,0,NaN,NaN,NaN,vertical,horizontal,horizontal,none,none,none
1c,6,100111,4,39,231,24,F,NA,variable,homogeneous,4,present,1.09366607666016,1,horizontal,horizontal,1,1.00000929832458,red,1,3,808.899371659138,854.844660889869,791.100628340862,345.155339110131,808.899371659138,854.844660889869,1054.84466088987,591.100628340862,791.100628340862,345.155339110131,545.155339110131,608.899371659138,0,0,0,0,4,0,0,0,NaN,NaN,horizontal,vertical,vertical,vertical,none,none
1c,6,100111,4,40,232,24,F,NA,variable,homogeneous,6,present,1.37923407554626,1,horizontal,horizontal,1,0.776474690437317,green,2,3,1038.06300875679,691.383827134052,998.172220171528,439.523300282291,839.890788585259,851.86052685176,1038.06300875679,691.383827134052,998.172220171528,439.523300282291,760.109211414741,348.13947314824,561.936991243214,508.616172865948,601.827779828472,760.476699717708,0,4,0,0,0,0,horizontal,horizontal,horizontal,vertical,horizontal,vertical
1c,6,100111,4,41,233,24,F,NA,variable,homogeneous,6,absent,0.924718141555786,1,horizontal,horizontal,1,0.682354855537414,red,3,NaN,1023.02802532055,476.373546837184,NaN,NaN,795.549636358493,854.96116226488,1018.57766167904,731.334709102064,1023.02802532055,476.373546837184,804.450363641507,345.03883773512,581.422338320961,468.665290897936,576.971974679454,723.626453162816,0,0,4,0,0,0,horizontal,vertical,horizontal,vertical,vertical,vertical
1c,6,100111,4,42,234,24,F,NA,variable,homogeneous,3,absent,0.961940050125122,1,horizontal,horizontal,1,0.729414772987366,green,1,NaN,986.495193912888,773.909581815937,NaN,NaN,986.495193912888,773.909581815937,857.362518857686,351.535633479765,556.142287229426,674.554784704298,0,0,0,0,0,0,4,0,0,NaN,NaN,NaN,horizontal,horizontal,horizontal,none,none,none
1c,6,100111,4,43,235,24,F,NA,variable,homogeneous,3,absent,0.646883010864258,1,vertical,vertical,1,0.870594525337219,red,2,NaN,1020.83647796503,472.5,NaN,NaN,800,855,1020.83647796503,472.5,579.163522034968,472.5,0,0,0,0,0,0,0,4,0,NaN,NaN,NaN,horizontal,vertical,vertical,none,none,none
1c,6,100111,4,44,236,24,F,NA,variable,homogeneous,3,present,0.761682987213135,1,vertical,vertical,1,0.882359504699707,green,1,2,839.890788585259,851.86052685176,998.172220171528,439.523300282291,839.890788585259,851.86052685176,998.172220171528,439.523300282291,561.936991243214,508.616172865948,0,0,0,0,0,0,4,0,0,NaN,NaN,NaN,vertical,vertical,vertical,none,none,none
1c,6,100111,4,45,237,24,F,NA,variable,homogeneous,6,absent,0.761733055114746,1,horizontal,horizontal,1,0.835299587249756,red,1,NaN,795.549636358493,854.96116226488,NaN,NaN,795.549636358493,854.96116226488,1018.57766167904,731.334709102064,1023.02802532055,476.373546837184,804.450363641507,345.03883773512,581.422338320961,468.665290897936,576.971974679454,723.626453162816,4,0,0,0,0,0,horizontal,horizontal,vertical,horizontal,horizontal,horizontal
1c,6,100111,4,46,238,24,F,NA,variable,homogeneous,3,present,0.70517110824585,1,horizontal,horizontal,1,0.611764979362488,red,3,1,616.568350913644,422.862115532956,738.309916622085,847.425410200379,738.309916622085,847.425410200379,1045.12173246427,529.712474266665,616.568350913644,422.862115532956,0,0,0,0,0,0,0,0,4,NaN,NaN,NaN,horizontal,vertical,horizontal,none,none,none
1c,6,100111,4,47,239,24,F,NA,variable,homogeneous,4,present,0.859697103500366,1,horizontal,horizontal,1,0.6,green,1,3,729.712474266665,845.121732464271,870.287525733335,354.878267535729,729.712474266665,845.121732464271,1045.12173246427,670.287525733335,870.287525733335,354.878267535729,554.878267535729,529.712474266665,0,0,0,0,4,0,0,0,NaN,NaN,horizontal,horizontal,horizontal,horizontal,none,none
1c,6,100111,4,48,240,24,F,NA,variable,homogeneous,5,present,0.770174026489258,1,vertical,vertical,1,0.658824896812439,green,5,4,579.163522034968,727.5,610.498069503264,429.371695378491,853.017481158529,849.42763818712,1053.60308331891,626.654758133252,903.717843984329,367.045908301137,610.498069503264,429.371695378491,579.163522034968,727.5,0,0,0,0,0,0,4,NaN,horizontal,horizontal,vertical,vertical,vertical,none
1c,6,100111,4,49,241,24,F,NA,variable,homogeneous,5,absent,1.04605388641357,1,horizontal,horizontal,1,0.81176962852478,red,4,NaN,558.892763222174,516.980120613425,NaN,NaN,946.261991269517,808.883771293693,1043.85771277057,525.445215295702,804.450363641507,345.03883773512,558.892763222174,516.980120613425,646.537169096228,803.65205506206,0,0,0,0,0,4,0,NaN,horizontal,horizontal,vertical,horizontal,horizontal,none
1c,6,100111,4,50,242,24,F,NA,variable,homogeneous,3,absent,0.726436853408813,1,horizontal,horizontal,1,0.964714360237122,red,2,NaN,883.019879386575,358.892763222174,NaN,NaN,967.295052392579,792.450942956807,883.019879386575,358.892763222174,549.685068220846,648.656293821019,0,0,0,0,0,0,0,4,0,NaN,NaN,NaN,horizontal,horizontal,horizontal,none,none,none
1c,6,100111,4,51,243,24,F,NA,variable,homogeneous,4,absent,1.17423987388611,1,horizontal,horizontal,1,1.04706921577454,red,1,NaN,725.445215295702,843.857712770574,NaN,NaN,725.445215295702,843.857712770574,1043.85771277057,674.554784704298,874.554784704298,356.142287229426,556.142287229426,525.445215295702,0,0,0,0,4,0,0,0,NaN,NaN,horizontal,vertical,vertical,horizontal,none,none
1c,6,100111,4,52,244,24,F,NA,variable,homogeneous,4,present,0.98625111579895,1,vertical,vertical,1,0.635294938087463,red,4,2,553.688914296288,665.998856501143,1046.31108570371,534.001143498857,865.998856501143,846.311085703712,1046.31108570371,534.001143498857,734.001143498857,353.688914296288,553.688914296288,665.998856501143,0,0,0,0,0,0,0,4,NaN,NaN,vertical,horizontal,horizontal,vertical,none,none
1c,6,100111,4,53,245,24,F,NA,variable,homogeneous,5,present,0.619275808334351,0,vertical,horizontal,1,0.658824896812439,red,3,4,935.129412379467,383.747735480111,636.089159529932,404.658667004661,817.787900804752,854.378832816255,1047.42541020038,661.690083377915,935.129412379467,383.747735480111,636.089159529932,404.658667004661,563.568117085469,695.524681321058,0,0,0,0,4,0,0,NaN,vertical,horizontal,vertical,horizontal,horizontal,none
