experiment,subject,uniqueID,block,trial,trial_cumulative,age,gender,color_cond_blocking,color_history,shape_type,set_size,distractor,rt,acc,target_orient,response_key,response_made,iti,target_color,target_item,distractor_item,target_X,target_Y,distractor_X,distractor_Y,item1_X,item1_Y,item2_X,item2_Y,item3_X,item3_Y,item4_X,item4_Y,item5_X,item5_Y,item6_X,item6_Y,item1_shape,item2_shape,item3_shape,item4_shape,item5_shape,item6_shape,item1_line,item2_line,item3_line,item4_line,item5_line,item6_line
1c,7,100132,1,1,1,18,M,NA,variable,homogeneous,5,present,1.27425694465637,0,vertical,horizontal,1,1.02351965904236,red,5,1,636.089159529932,795.341332995339,935.129412379467,816.252264519889,935.129412379467,816.252264519889,1047.42541020038,538.309916622085,817.787900804752,345.621167183745,563.568117085469,504.475318678942,636.089159529932,795.341332995339,0,0,0,0,0,0,4,NaN,horizontal,horizontal,horizontal,horizontal,vertical,none
1c,7,100132,1,2,2,18,M,NA,variable,homogeneous,6,present,1.25812196731567,1,vertical,vertical,1,0.941168614228566,green,3,4,1029.19248180629,488.215357568785,817.787900804752,345.621167183745,782.212099195248,854.378832816255,1011.40458100154,742.594190385041,1029.19248180629,488.215357568785,817.787900804752,345.621167183745,588.595418998464,457.40580961496,570.807518193712,711.784642431215,0,0,4,0,0,0,horizontal,vertical,vertical,vertical,horizontal,horizontal
1c,7,100132,1,3,3,18,M,NA,variable,homogeneous,6,absent,1.45632910728455,1,horizontal,horizontal,1,0.835288699467977,green,5,NaN,567.045908301137,496.282156015671,NaN,NaN,826.654758133252,853.60308331891,1032.95409169886,703.717843984329,1006.29933356561,450.114760665419,773.345241866748,346.39691668109,567.045908301137,496.282156015671,593.700666434388,749.885239334581,0,0,0,0,4,0,horizontal,vertical,horizontal,vertical,horizontal,horizontal
1c,7,100132,1,4,4,18,M,NA,variable,homogeneous,5,present,0.953776121139526,1,vertical,vertical,1,0.611764434973399,green,1,3,668.665290897936,818.577661679039,1034.72873763037,500.363562235235,668.665290897936,818.577661679039,967.295052392579,792.450942956807,1034.72873763037,500.363562235235,777.775285599347,345.970351986605,551.535633479765,542.637481142314,0,0,4,0,0,0,0,NaN,vertical,horizontal,horizontal,horizontal,vertical,none
1c,7,100132,1,5,5,18,M,NA,variable,homogeneous,3,absent,0.859468936920166,1,horizontal,horizontal,1,0.729408784707387,red,1,NaN,953.462830903772,803.65205506206,NaN,NaN,953.462830903772,803.65205506206,899.636437764765,365.271262369628,546.900731331463,631.076682568313,0,0,0,0,0,0,4,0,0,NaN,NaN,NaN,horizontal,horizontal,vertical,none,none,none
1c,7,100132,1,6,6,18,M,NA,variable,homogeneous,3,absent,0.697792768478394,1,horizontal,horizontal,1,0.635293304920197,green,1,NaN,953.462830903772,803.65205506206,NaN,NaN,953.462830903772,803.65205506206,899.636437764765,365.271262369628,546.900731331463,631.076682568313,0,0,0,0,0,0,4,0,0,NaN,NaN,NaN,horizontal,horizontal,horizontal,none,none,none
1c,7,100132,1,7,7,18,M,NA,variable,homogeneous,6,present,0.864476203918457,1,vertical,vertical,1,0.823524264494578,green,6,5,632.704947607421,792.450942956807,549.685068220846,551.343706178981,883.019879386575,841.107236777826,1050.31493177915,648.656293821019,967.295052392579,407.549057043193,716.980120613425,358.892763222174,549.685068220846,551.343706178981,632.704947607421,792.450942956807,0,0,0,0,0,4,horizontal,horizontal,horizontal,horizontal,horizontal,vertical
1c,7,100132,1,8,8,18,M,NA,variable,homogeneous,5,present,0.6488938331604,1,horizontal,horizontal,1,0.752937654654185,red,1,3,935.129412379467,816.252264519889,817.787900804752,345.621167183745,935.129412379467,816.252264519889,1047.42541020038,538.309916622085,817.787900804752,345.621167183745,563.568117085469,504.475318678942,636.089159529932,795.341332995339,0,0,4,0,0,0,0,NaN,horizontal,horizontal,horizontal,horizontal,horizontal,none
1c,7,100132,1,9,9,18,M,NA,variable,homogeneous,4,present,0.870136022567749,1,vertical,vertical,1,0.79999539454778,red,1,2,949.885239334581,806.299333565612,1006.29933356561,450.114760665419,949.885239334581,806.299333565612,1006.29933356561,450.114760665419,650.114760665419,393.700666434388,593.700666434388,749.885239334581,0,0,0,0,4,0,0,0,NaN,NaN,vertical,horizontal,vertical,vertical,none,none
1c,7,100132,1,10,10,18,M,NA,variable,homogeneous,6,absent,1.5117130279541,0,vertical,horizontal,1,0.811759829521179,red,3,NaN,1027.20666366803,484.232422566416,NaN,NaN,786.654331158049,854.650531362416,1013.86099482608,738.882953928832,1027.20666366803,484.232422566416,813.345668841951,345.349468637584,586.139005173917,461.117046071168,572.793336331966,715.767577433584,0,0,4,0,0,0,vertical,vertical,vertical,vertical,horizontal,vertical
1c,7,100132,1,11,11,18,M,NA,variable,homogeneous,6,absent,1.24704504013062,1,vertical,vertical,1,0.635293304920197,green,5,NaN,591.116228706307,453.738008730483,NaN,NaN,777.775285599347,854.029648013395,1008.88377129369,746.261991269517,1031.10848569435,492.232343256122,822.224714400653,345.970351986605,591.116228706307,453.738008730483,568.891514305654,707.767656743878,0,0,0,0,4,0,vertical,vertical,horizontal,vertical,vertical,horizontal
1c,7,100132,1,12,12,18,M,NA,variable,homogeneous,3,absent,0.937515020370483,1,vertical,vertical,1,0.858817569414775,red,3,NaN,588.595418998464,457.40580961496,NaN,NaN,782.212099195248,854.378832816255,1029.19248180629,488.215357568785,588.595418998464,457.40580961496,0,0,0,0,0,0,0,0,4,NaN,NaN,NaN,horizontal,horizontal,vertical,none,none,none
1c,7,100132,1,13,13,18,M,NA,variable,homogeneous,3,absent,0.928627014160156,1,vertical,vertical,1,0.811759829521179,green,2,NaN,1051.12597701811,555.719714694933,NaN,NaN,712.784863451954,839.621618300407,1051.12597701811,555.719714694933,636.089159529932,404.658667004661,0,0,0,0,0,0,0,4,0,NaN,NaN,NaN,vertical,vertical,horizontal,none,none,none
1c,7,100132,1,14,14,18,M,NA,variable,homogeneous,4,present,0.978920936584473,1,vertical,vertical,1,0.976461919148763,green,3,4,980.31222920257,419.68777079743,619.68777079743,419.68777079743,619.68777079743,780.31222920257,980.31222920257,780.31222920257,980.31222920257,419.68777079743,619.68777079743,419.68777079743,0,0,0,0,0,0,4,0,NaN,NaN,horizontal,horizontal,vertical,horizontal,none,none
1c,7,100132,1,15,15,18,M,NA,variable,homogeneous,6,absent,0.784945964813232,1,vertical,vertical,1,0.694115479787191,red,3,NaN,1000.94274216971,443.006323791957,NaN,NaN,835.489140744817,852.518357529101,1036.43188291453,695.524681321058,1000.94274216971,443.006323791957,764.510859255183,347.4816424709,563.568117085469,504.475318678942,599.057257830286,756.993676208043,0,0,4,0,0,0,horizontal,vertical,vertical,horizontal,horizontal,horizontal
1c,7,100132,1,16,16,18,M,NA,variable,homogeneous,6,absent,0.857871055603027,1,horizontal,horizontal,1,1.05881296396255,red,6,NaN,576.971974679454,723.626453162816,NaN,NaN,795.549636358493,854.96116226488,1018.57766167904,731.334709102064,1023.02802532055,476.373546837184,804.450363641507,345.03883773512,581.422338320961,468.665290897936,576.971974679454,723.626453162816,0,0,0,0,0,4,horizontal,horizontal,horizontal,horizontal,horizontal,horizontal
1c,7,100132,1,17,17,18,M,NA,variable,homogeneous,4,absent,0.804619073867798,1,horizontal,horizontal,1,0.670586609840393,red,3,NaN,853.017481158529,350.57236181288,NaN,NaN,746.982518841471,849.42763818712,1049.42763818712,653.017481158529,853.017481158529,350.57236181288,550.57236181288,546.982518841471,0,0,0,0,0,0,4,0,NaN,NaN,vertical,vertical,horizontal,vertical,none,none
1c,7,100132,1,18,18,18,M,NA,variable,homogeneous,3,absent,0.976840019226074,1,vertical,vertical,1,0.6,red,1,NaN,704.475318678942,836.431882914531,NaN,NaN,704.475318678942,836.431882914531,1052.5183575291,564.510859255183,643.006323791957,399.057257830286,0,0,0,0,0,0,4,0,0,NaN,NaN,NaN,vertical,horizontal,horizontal,none,none,none
1c,7,100132,1,19,19,18,M,NA,variable,homogeneous,5,present,1.18054294586182,1,horizontal,horizontal,1,0.999990789095561,green,2,1,980.31222920257,780.31222920257,684.232422566416,827.206663668034,684.232422566416,827.206663668034,980.31222920257,780.31222920257,1027.20666366803,484.232422566416,760.109211414741,348.13947314824,548.13947314824,560.109211414741,0,0,0,4,0,0,0,NaN,vertical,horizontal,vertical,vertical,horizontal,none
1c,7,100132,1,20,20,18,M,NA,variable,homogeneous,3,present,0.749082088470459,1,horizontal,horizontal,1,0.635293304920197,green,2,1,1034.72873763037,500.363562235235,768.923317431687,853.099268668537,768.923317431687,853.099268668537,1034.72873763037,500.363562235235,596.34794493794,446.537169096228,0,0,0,0,0,0,0,4,0,NaN,NaN,NaN,vertical,horizontal,horizontal,none,none,none
1c,7,100132,1,21,21,18,M,NA,variable,homogeneous,4,absent,0.957540988922119,1,vertical,vertical,1,0.670586609840393,red,3,NaN,721.200666434388,357.480588344736,NaN,NaN,878.799333565612,842.519411655264,1042.51941165526,521.200666434388,721.200666434388,357.480588344736,557.480588344736,678.799333565612,0,0,0,0,0,0,4,0,NaN,NaN,vertical,vertical,vertical,vertical,none,none
1c,7,100132,1,22,22,18,M,NA,variable,homogeneous,4,absent,0.884772062301636,1,horizontal,horizontal,1,1.01175522406896,red,3,NaN,680.284751489598,374.848363820974,NaN,NaN,919.715248510402,825.151636179026,1025.15163617903,480.284751489598,680.284751489598,374.848363820974,574.848363820974,719.715248510402,0,0,0,0,0,0,4,0,NaN,NaN,horizontal,vertical,horizontal,horizontal,none,none
1c,7,100132,1,23,23,18,M,NA,variable,homogeneous,3,present,0.986217021942139,1,vertical,vertical,1,0.764702089627584,green,1,2,751.343706178981,850.314931779154,1041.10723677783,516.980120613425,751.343706178981,850.314931779154,1041.10723677783,516.980120613425,607.549057043193,432.704947607421,0,0,0,0,0,0,4,0,0,NaN,NaN,NaN,vertical,vertical,vertical,none,none,none
1c,7,100132,1,24,24,18,M,NA,variable,homogeneous,3,present,1.06120991706848,1,vertical,vertical,1,0.952933049201965,red,1,2,923.626453162816,823.028025320546,931.334709102064,381.422338320961,923.626453162816,823.028025320546,931.334709102064,381.422338320961,545.03883773512,595.549636358493,0,0,0,0,0,0,4,0,0,NaN,NaN,NaN,vertical,vertical,horizontal,none,none,none
1c,7,100132,1,25,25,18,M,NA,variable,homogeneous,4,absent,0.588642120361328,1,vertical,vertical,1,0.90587530930837,green,1,NaN,813.345668841951,854.650531362416,NaN,NaN,813.345668841951,854.650531362416,1054.65053136242,586.654331158049,786.654331158049,345.349468637584,545.349468637584,613.345668841951,0,0,0,0,4,0,0,0,NaN,NaN,vertical,vertical,vertical,vertical,none,none
1c,7,100132,1,26,26,18,M,NA,variable,homogeneous,3,present,1.01421403884888,1,horizontal,horizontal,1,1.07057739893595,red,1,2,581.422338320961,731.334709102064,1023.02802532055,723.626453162816,581.422338320961,731.334709102064,1023.02802532055,723.626453162816,795.549636358493,345.03883773512,0,0,0,0,0,0,4,0,0,NaN,NaN,NaN,horizontal,horizontal,vertical,none,none,none
1c,7,100132,1,27,27,18,M,NA,variable,homogeneous,6,absent,1.39432907104492,1,horizontal,horizontal,1,0.788230959574381,green,2,NaN,1041.10723677783,683.019879386575,NaN,NaN,848.656293821019,850.314931779154,1041.10723677783,683.019879386575,992.450942956807,432.704947607421,751.343706178981,349.685068220846,558.892763222174,516.980120613425,607.549057043193,767.295052392579,0,4,0,0,0,0,vertical,horizontal,horizontal,vertical,vertical,horizontal
1c,7,100132,1,28,28,18,M,NA,variable,homogeneous,5,present,1.09244990348816,1,horizontal,horizontal,1,1.09410626888275,red,4,2,696.282156015671,367.045908301137,1020.83647796503,727.5,746.982518841471,849.42763818712,1020.83647796503,727.5,989.501930496736,429.371695378491,696.282156015671,367.045908301137,546.39691668109,626.654758133252,0,0,0,0,0,4,0,NaN,vertical,horizontal,horizontal,horizontal,horizontal,none
1c,7,100132,1,29,29,18,M,NA,variable,homogeneous,4,present,0.909124135971069,1,horizontal,horizontal,1,0.752937654654185,green,3,1,980.31222920257,419.68777079743,619.68777079743,780.31222920257,619.68777079743,780.31222920257,980.31222920257,780.31222920257,980.31222920257,419.68777079743,619.68777079743,419.68777079743,0,0,0,0,0,0,4,0,NaN,NaN,horizontal,vertical,horizontal,horizontal,none,none
1c,7,100132,1,30,30,18,M,NA,variable,homogeneous,5,present,0.799172163009644,1,vertical,vertical,1,0.776466524600983,green,5,3,610.498069503264,770.628304621509,853.017481158529,350.57236181288,903.717843984329,832.954091698863,1053.60308331891,573.345241866748,853.017481158529,350.57236181288,579.163522034968,472.5,610.498069503264,770.628304621509,0,0,0,0,0,0,4,NaN,horizontal,vertical,vertical,horizontal,vertical,none
1c,7,100132,1,31,31,18,M,NA,variable,homogeneous,5,absent,0.714872121810913,1,vertical,vertical,1,0.776466524600983,green,5,NaN,650.114760665419,806.299333565612,NaN,NaN,949.885239334581,806.299333565612,1042.51941165526,521.200666434388,800,345,557.480588344736,521.200666434388,650.114760665419,806.299333565612,0,0,0,0,0,0,4,NaN,horizontal,horizontal,horizontal,horizontal,vertical,none
1c,7,100132,1,32,32,18,M,NA,variable,homogeneous,5,present,1.2125551700592,1,horizontal,horizontal,1,0.976461919148763,green,4,1,786.654331158049,345.349468637584,661.117046071168,813.860994826083,661.117046071168,813.860994826083,960.476699717708,798.172220171528,1038.06300875679,508.616172865948,786.654331158049,345.349468637584,553.688914296288,534.001143498857,0,0,0,0,0,4,0,NaN,horizontal,vertical,vertical,horizontal,vertical,none
1c,7,100132,1,33,33,18,M,NA,variable,homogeneous,6,present,0.906643152236938,1,horizontal,horizontal,1,0.858817569414775,red,3,2,927.5,379.163522034968,1055,600,927.5,820.836477965032,1055,600,927.5,379.163522034968,672.5,379.163522034968,545,600,672.5,820.836477965032,0,0,4,0,0,0,horizontal,horizontal,horizontal,vertical,vertical,vertical
1c,7,100132,1,34,34,18,M,NA,variable,homogeneous,5,absent,0.938596963882446,1,vertical,vertical,1,1.08234183390935,red,5,NaN,553.688914296288,534.001143498857,NaN,NaN,661.117046071168,813.860994826083,960.476699717708,798.172220171528,1038.06300875679,508.616172865948,786.654331158049,345.349468637584,553.688914296288,534.001143498857,0,0,0,0,0,0,4,NaN,vertical,vertical,horizontal,vertical,vertical,none
1c,7,100132,1,35,35,18,M,NA,variable,homogeneous,4,present,0.938462972640991,1,horizontal,horizontal,1,1.05881296396255,red,4,2,557.480588344736,678.799333565612,1042.51941165526,521.200666434388,878.799333565612,842.519411655264,1042.51941165526,521.200666434388,721.200666434388,357.480588344736,557.480588344736,678.799333565612,0,0,0,0,0,0,0,4,NaN,NaN,horizontal,horizontal,vertical,horizontal,none,none
1c,7,100132,1,36,36,18,M,NA,variable,homogeneous,6,absent,0.790436029434204,1,vertical,vertical,1,1.04704852898916,green,2,NaN,1038.06300875679,691.383827134052,NaN,NaN,839.890788585259,851.86052685176,1038.06300875679,691.383827134052,998.172220171528,439.523300282291,760.109211414741,348.13947314824,561.936991243214,508.616172865948,601.827779828472,760.476699717708,0,4,0,0,0,0,vertical,vertical,horizontal,horizontal,horizontal,vertical
1c,7,100132,1,37,37,18,M,NA,variable,homogeneous,5,absent,0.753998041152954,1,vertical,vertical,1,1.01175522406896,green,2,NaN,1054.84466088987,591.100628340862,NaN,NaN,887.215136548046,839.621618300407,1054.84466088987,591.100628340862,870.287525733335,354.878267535729,588.595418998464,457.40580961496,599.057257830286,756.993676208043,0,0,0,4,0,0,0,NaN,vertical,vertical,vertical,vertical,vertical,none
1c,7,100132,1,38,38,18,M,NA,variable,homogeneous,3,present,1.33259510993958,0,vertical,horizontal,1,0.929404179255168,red,2,3,883.019879386575,358.892763222174,549.685068220846,648.656293821019,967.295052392579,792.450942956807,883.019879386575,358.892763222174,549.685068220846,648.656293821019,0,0,0,0,0,0,0,4,0,NaN,NaN,NaN,horizontal,vertical,vertical,none,none,none
1c,7,100132,1,39,39,18,M,NA,variable,homogeneous,4,absent,0.80304217338562,1,vertical,vertical,1,0.788230959574381,red,1,NaN,622.862115532956,783.431649086356,NaN,NaN,622.862115532956,783.431649086356,983.431649086356,777.137884467044,977.137884467044,416.568350913644,616.568350913644,422.862115532956,0,0,0,0,4,0,0,0,NaN,NaN,vertical,vertical,vertical,vertical,none,none
1c,7,100132,1,40,40,18,M,NA,variable,homogeneous,3,present,0.943730115890503,1,horizontal,horizontal,1,0.6,green,3,2,629.371695378491,410.498069503264,1049.42763818712,546.982518841471,721.200666434388,842.519411655264,1049.42763818712,546.982518841471,629.371695378491,410.498069503264,0,0,0,0,0,0,0,0,4,NaN,NaN,NaN,horizontal,horizontal,horizontal,none,none,none
1c,7,100132,1,41,41,18,M,NA,variable,homogeneous,5,present,NaN,0,vertical,none,0,0.623528869946798,red,1,5,915.767577433584,827.206663668034,619.68777079743,780.31222920257,915.767577433584,827.206663668034,1051.86052685176,560.109211414741,839.890788585259,348.13947314824,572.793336331966,484.232422566416,619.68777079743,780.31222920257,0,0,4,0,0,0,0,NaN,vertical,vertical,vertical,horizontal,vertical,none
1c,7,100132,1,42,42,18,M,NA,variable,homogeneous,5,absent,0.856277942657471,1,horizontal,horizontal,1,0.835288699467977,red,3,NaN,857.362518857686,351.535633479765,NaN,NaN,899.636437764765,834.728737630372,1054.0296480134,577.775285599347,857.362518857686,351.535633479765,581.422338320961,468.665290897936,607.549057043193,767.295052392579,0,0,0,0,4,0,0,NaN,vertical,vertical,horizontal,horizontal,horizontal,none
1c,7,100132,1,43,43,18,M,NA,variable,homogeneous,4,absent,1.04190421104431,1,horizontal,horizontal,1,0.635293304920197,green,4,NaN,565.271262369628,500.363562235235,NaN,NaN,700.363562235235,834.728737630372,1034.72873763037,699.636437764765,899.636437764765,365.271262369628,565.271262369628,500.363562235235,0,0,0,0,0,0,0,4,NaN,NaN,vertical,horizontal,horizontal,horizontal,none,none
1c,7,100132,1,44,44,18,M,NA,variable,homogeneous,4,present,1.28065800666809,1,horizontal,horizontal,1,0.90587530930837,red,1,3,977.137884467044,783.431649086356,622.862115532956,416.568350913644,977.137884467044,783.431649086356,983.431649086356,422.862115532956,622.862115532956,416.568350913644,616.568350913644,777.137884467044,0,0,0,0,4,0,0,0,NaN,NaN,horizontal,horizontal,horizontal,horizontal,none,none
1c,7,100132,1,45,45,18,M,NA,variable,homogeneous,4,absent,0.866516828536987,1,horizontal,horizontal,1,0.976461919148763,green,1,NaN,646.537169096228,803.65205506206,NaN,NaN,646.537169096228,803.65205506206,1003.65205506206,753.462830903772,953.462830903772,396.34794493794,596.34794493794,446.537169096228,0,0,0,0,4,0,0,0,NaN,NaN,horizontal,vertical,vertical,horizontal,none,none
1c,7,100132,1,46,46,18,M,NA,variable,homogeneous,5,absent,0.803298950195312,1,horizontal,horizontal,1,0.776466524600983,green,4,NaN,604.658667004661,436.089159529932,NaN,NaN,861.690083377915,847.425410200379,1054.37883281626,617.787900804752,895.524681321058,363.568117085469,604.658667004661,436.089159529932,583.747735480111,735.129412379467,0,0,0,0,0,4,0,NaN,vertical,vertical,vertical,horizontal,horizontal,none
1c,7,100132,1,47,47,18,M,NA,variable,homogeneous,3,present,0.689646005630493,1,vertical,vertical,1,1.09410626888275,green,1,2,874.554784704298,843.857712770574,973.909581815937,413.504806087112,874.554784704298,843.857712770574,973.909581815937,413.504806087112,551.535633479765,542.637481142314,0,0,0,0,0,0,4,0,0,NaN,NaN,NaN,vertical,horizontal,vertical,none,none,none
1c,7,100132,1,48,48,18,M,NA,variable,homogeneous,6,present,1.19217610359192,1,vertical,vertical,1,0.835288699467977,red,6,2,557.480588344736,678.799333565612,989.501930496736,770.628304621509,746.982518841471,849.42763818712,989.501930496736,770.628304621509,1042.51941165526,521.200666434388,853.017481158529,350.57236181288,610.498069503264,429.371695378491,557.480588344736,678.799333565612,0,0,0,0,0,4,vertical,vertical,horizontal,horizontal,vertical,vertical
1c,7,100132,1,49,49,18,M,NA,variable,homogeneous,6,present,1.10946393013,1,horizontal,horizontal,1,0.658822174866994,red,5,6,588.595418998464,457.40580961496,570.807518193712,711.784642431215,782.212099195248,854.378832816255,1011.40458100154,742.594190385041,1029.19248180629,488.215357568785,817.787900804752,345.621167183745,588.595418998464,457.40580961496,570.807518193712,711.784642431215,0,0,0,0,4,0,horizontal,horizontal,vertical,vertical,horizontal,horizontal
1c,7,100132,1,50,50,18,M,NA,variable,homogeneous,4,absent,0.743369817733765,1,vertical,vertical,1,0.976461919148763,green,4,NaN,570.807518193712,711.784642431215,NaN,NaN,911.784642431215,829.192481806288,1029.19248180629,488.215357568785,688.215357568785,370.807518193712,570.807518193712,711.784642431215,0,0,0,0,0,0,0,4,NaN,NaN,horizontal,horizontal,vertical,vertical,none,none
1c,7,100132,1,51,51,18,M,NA,variable,homogeneous,5,absent,0.692622184753418,1,horizontal,horizontal,1,0.70587991476059,green,5,NaN,547.481642470899,564.510859255183,NaN,NaN,688.215357568785,829.192481806288,983.431649086356,777.137884467044,1025.15163617903,480.284751489598,755.719714694933,348.874022981887,547.481642470899,564.510859255183,0,0,0,0,0,0,4,NaN,vertical,vertical,vertical,horizontal,horizontal,none
1c,7,100132,1,52,52,18,M,NA,variable,homogeneous,3,absent,0.745293140411377,1,horizontal,horizontal,1,0.729408784707387,green,2,NaN,1053.09926866854,631.076682568313,NaN,NaN,646.537169096228,803.65205506206,1053.09926866854,631.076682568313,700.363562235235,365.271262369628,0,0,0,0,0,0,0,4,0,NaN,NaN,NaN,horizontal,horizontal,vertical,none,none,none
1c,7,100132,1,53,53,18,M,NA,variable,homogeneous,3,absent,1.04645586013794,1,horizontal,horizontal,1,0.70587991476059,red,1,NaN,973.909581815937,786.495193912888,NaN,NaN,973.909581815937,786.495193912888,874.554784704298,356.142287229426,551.535633479765,657.362518857686,0,0,0,0,0,0,4,0,0,NaN,NaN,NaN,horizontal,horizontal,horizontal,none,none,none
1c,7,100132,1,54,54,18,M,NA,variable,homogeneous,3,absent,0.911089897155762,1,vertical,vertical,1,0.964697484175364,green,2,NaN,870.287525733335,354.878267535729,NaN,NaN,977.137884467044,783.431649086356,870.287525733335,354.878267535729,552.574589799621,661.690083377915,0,0,0,0,0,0,0,4,0,NaN,NaN,NaN,vertical,vertical,vertical,none,none,none
1c,7,100132,1,55,55,18,M,NA,variable,homogeneous,4,present,0.792383193969727,1,vertical,vertical,1,0.752937654654185,green,3,4,619.68777079743,419.68777079743,619.68777079743,780.31222920257,980.31222920257,780.31222920257,980.31222920257,419.68777079743,619.68777079743,419.68777079743,619.68777079743,780.31222920257,0,0,0,0,0,0,4,0,NaN,NaN,vertical,vertical,vertical,vertical,none,none
1c,7,100132,1,56,56,18,M,NA,variable,homogeneous,4,present,1.22773194313049,1,horizontal,horizontal,1,0.764702089627584,green,2,3,1025.15163617903,480.284751489598,680.284751489598,374.848363820974,919.715248510402,825.151636179026,1025.15163617903,480.284751489598,680.284751489598,374.848363820974,574.848363820974,719.715248510402,0,0,0,0,0,4,0,0,NaN,NaN,horizontal,horizontal,horizontal,horizontal,none,none
1c,7,100132,1,57,57,18,M,NA,variable,homogeneous,5,absent,0.821613073348999,1,horizontal,horizontal,1,1.05881296396255,red,5,NaN,548.874022981887,555.719714694933,NaN,NaN,680.284751489598,825.151636179026,977.137884467044,783.431649086356,1029.19248180629,488.215357568785,764.510859255183,347.4816424709,548.874022981887,555.719714694933,0,0,0,0,0,0,4,NaN,vertical,horizontal,vertical,vertical,horizontal,none
1c,7,100132,1,58,58,18,M,NA,variable,homogeneous,6,present,1.39816999435425,1,horizontal,horizontal,1,0.6,green,4,5,915.767577433584,372.793336331966,661.117046071168,386.139005173917,684.232422566416,827.206663668034,938.882953928832,813.860994826083,1054.65053136242,586.654331158049,915.767577433584,372.793336331966,661.117046071168,386.139005173917,545.349468637584,613.345668841951,0,0,0,4,0,0,horizontal,vertical,vertical,horizontal,vertical,horizontal
1c,7,100132,1,59,59,18,M,NA,variable,homogeneous,6,absent,0.910465955734253,1,horizontal,horizontal,1,1.02351965904236,red,6,NaN,622.862115532956,783.431649086356,NaN,NaN,870.287525733335,845.121732464271,1047.42541020038,661.690083377915,977.137884467044,416.568350913644,729.712474266665,354.878267535729,552.574589799621,538.309916622085,622.862115532956,783.431649086356,0,0,0,0,0,4,horizontal,vertical,vertical,horizontal,horizontal,horizontal
1c,7,100132,1,60,60,18,M,NA,variable,homogeneous,3,present,0.888653993606567,1,horizontal,horizontal,1,0.976461919148763,red,2,1,1049.42763818712,546.982518841471,721.200666434388,842.519411655264,721.200666434388,842.519411655264,1049.42763818712,546.982518841471,629.371695378491,410.498069503264,0,0,0,0,0,0,0,4,0,NaN,NaN,NaN,vertical,horizontal,vertical,none,none,none
1c,7,100132,1,61,61,18,M,NA,variable,homogeneous,6,present,1.15865302085876,1,vertical,vertical,1,0.611764434973399,red,6,5,576.971974679454,723.626453162816,581.422338320961,468.665290897936,795.549636358493,854.96116226488,1018.57766167904,731.334709102064,1023.02802532055,476.373546837184,804.450363641507,345.03883773512,581.422338320961,468.665290897936,576.971974679454,723.626453162816,0,0,0,0,0,4,vertical,horizontal,vertical,horizontal,vertical,vertical
1c,7,100132,1,62,62,18,M,NA,variable,homogeneous,5,absent,0.70926308631897,1,vertical,vertical,1,0.964697484175364,red,5,NaN,591.116228706307,746.261991269517,NaN,NaN,874.554784704298,843.857712770574,1054.96116226488,604.450363641507,883.019879386575,358.892763222174,596.34794493794,446.537169096228,591.116228706307,746.261991269517,0,0,0,0,0,0,4,NaN,vertical,horizontal,horizontal,horizontal,vertical,none
1c,7,100132,1,63,63,18,M,NA,variable,homogeneous,4,present,0.837713003158569,1,vertical,vertical,1,0.70587991476059,red,1,3,857.362518857686,848.464366520235,742.637481142314,351.535633479765,857.362518857686,848.464366520235,1048.46436652023,542.637481142314,742.637481142314,351.535633479765,551.535633479765,657.362518857686,0,0,0,0,4,0,0,0,NaN,NaN,vertical,vertical,horizontal,horizontal,none,none
1c,7,100132,1,64,64,18,M,NA,variable,homogeneous,6,present,1.03760695457458,1,horizontal,horizontal,1,0.952933049201965,green,3,5,970.628304621509,410.498069503264,550.57236181288,546.982518841471,878.799333565612,842.519411655264,1049.42763818712,653.017481158529,970.628304621509,410.498069503264,721.200666434388,357.480588344736,550.57236181288,546.982518841471,629.371695378491,789.501930496736,0,0,4,0,0,0,horizontal,horizontal,horizontal,vertical,vertical,horizontal
1c,7,100132,2,1,65,18,M,NA,variable,homogeneous,3,present,0.87235689163208,1,horizontal,horizontal,1,0.682351044813792,green,1,3,927.5,820.836477965032,545,600,927.5,820.836477965032,927.5,379.163522034968,545,600,0,0,0,0,0,0,4,0,0,NaN,NaN,NaN,horizontal,horizontal,horizontal,none,none,none
1c,7,100132,2,2,66,18,M,NA,variable,homogeneous,6,absent,NaN,0,vertical,none,0,1.07057739893595,red,5,NaN,593.700666434388,450.114760665419,NaN,NaN,773.345241866748,853.60308331891,1006.29933356561,749.885239334581,1032.95409169886,496.282156015671,826.654758133252,346.39691668109,593.700666434388,450.114760665419,567.045908301137,703.717843984329,0,0,0,0,4,0,vertical,vertical,horizontal,vertical,vertical,vertical
1c,7,100132,2,3,67,18,M,NA,variable,homogeneous,3,absent,0.684241056442261,1,vertical,vertical,1,0.623528869946798,red,3,NaN,572.793336331966,484.232422566416,NaN,NaN,813.345668841951,854.650531362416,1013.86099482608,461.117046071168,572.793336331966,484.232422566416,0,0,0,0,0,0,0,0,4,NaN,NaN,NaN,horizontal,horizontal,vertical,none,none,none
1c,7,100132,2,4,68,18,M,NA,variable,homogeneous,4,present,0.995324850082397,1,horizontal,horizontal,1,1.05881296396255,red,1,3,619.68777079743,780.31222920257,980.31222920257,419.68777079743,619.68777079743,780.31222920257,980.31222920257,780.31222920257,980.31222920257,419.68777079743,619.68777079743,419.68777079743,0,0,0,0,4,0,0,0,NaN,NaN,horizontal,vertical,vertical,horizontal,none,none
1c,7,100132,2,5,69,18,M,NA,variable,homogeneous,4,absent,0.854608058929443,1,vertical,vertical,1,0.964697484175364,green,3,NaN,751.343706178981,349.685068220846,NaN,NaN,848.656293821019,850.314931779154,1050.31493177915,551.343706178981,751.343706178981,349.685068220846,549.685068220846,648.656293821019,0,0,0,0,0,0,4,0,NaN,NaN,vertical,horizontal,vertical,vertical,none,none
1c,7,100132,2,6,70,18,M,NA,variable,homogeneous,3,present,1.22933506965637,1,vertical,vertical,1,0.670586609840393,red,2,1,960.476699717708,401.827779828472,891.383827134052,838.063008756786,891.383827134052,838.063008756786,960.476699717708,401.827779828472,548.13947314824,560.109211414741,0,0,0,0,0,0,0,4,0,NaN,NaN,NaN,vertical,vertical,horizontal,none,none,none
1c,7,100132,2,7,71,18,M,NA,variable,homogeneous,6,present,0.90836501121521,1,horizontal,horizontal,1,0.717644349733988,red,3,5,980.31222920257,419.68777079743,553.688914296288,534.001143498857,865.998856501143,846.311085703712,1046.31108570371,665.998856501143,980.31222920257,419.68777079743,734.001143498857,353.688914296288,553.688914296288,534.001143498857,619.68777079743,780.31222920257,0,0,4,0,0,0,vertical,vertical,horizontal,vertical,horizontal,horizontal
1c,7,100132,2,8,72,18,M,NA,variable,homogeneous,4,present,0.8923180103302,1,vertical,vertical,1,0.682351044813792,red,4,3,607.549057043193,767.295052392579,632.704947607421,407.549057043193,967.295052392579,792.450942956807,992.450942956807,432.704947607421,632.704947607421,407.549057043193,607.549057043193,767.295052392579,0,0,0,0,0,0,0,4,NaN,NaN,horizontal,horizontal,horizontal,vertical,none,none
1c,7,100132,2,9,73,18,M,NA,variable,homogeneous,3,present,1.11022400856018,1,horizontal,horizontal,1,0.6,red,2,3,935.129412379467,383.747735480111,545.155339110131,591.100628340862,919.715248510402,825.151636179026,935.129412379467,383.747735480111,545.155339110131,591.100628340862,0,0,0,0,0,0,0,4,0,NaN,NaN,NaN,vertical,horizontal,horizontal,none,none,none
1c,7,100132,2,10,74,18,M,NA,variable,homogeneous,6,present,0.864131927490234,1,horizontal,horizontal,1,0.776466524600983,green,5,3,548.874022981887,555.719714694933,963.910840470068,404.658667004661,887.215136548046,839.621618300407,1051.12597701811,644.280285305067,963.910840470068,404.658667004661,712.784863451954,360.378381699593,548.874022981887,555.719714694933,636.089159529932,795.341332995339,0,0,0,0,4,0,vertical,horizontal,vertical,vertical,horizontal,vertical
1c,7,100132,2,11,75,18,M,NA,variable,homogeneous,5,present,1.07876205444336,1,horizontal,horizontal,1,1.05881296396255,red,3,5,891.383827134052,361.936991243214,586.139005173917,738.882953928832,865.998856501143,846.311085703712,1054.65053136242,613.345668841951,891.383827134052,361.936991243214,601.827779828472,439.523300282291,586.139005173917,738.882953928832,0,0,0,0,4,0,0,NaN,vertical,horizontal,horizontal,horizontal,horizontal,none
1c,7,100132,2,12,76,18,M,NA,variable,homogeneous,4,absent,0.724743843078613,1,horizontal,horizontal,1,0.823524264494578,green,3,NaN,676.373546837184,376.971974679454,NaN,NaN,923.626453162816,823.028025320546,1023.02802532055,476.373546837184,676.373546837184,376.971974679454,576.971974679454,723.626453162816,0,0,0,0,0,0,4,0,NaN,NaN,vertical,vertical,horizontal,horizontal,none,none
1c,7,100132,2,13,77,18,M,NA,variable,homogeneous,5,absent,0.726657867431641,1,horizontal,horizontal,1,0.964697484175364,green,5,NaN,545.155339110131,591.100628340862,NaN,NaN,712.784863451954,839.621618300407,1000.94274216971,756.993676208043,1011.40458100154,457.40580961496,729.712474266665,354.878267535729,545.155339110131,591.100628340862,0,0,0,0,0,0,4,NaN,vertical,horizontal,horizontal,horizontal,horizontal,none
1c,7,100132,2,14,78,18,M,NA,variable,homogeneous,6,absent,0.74946403503418,1,vertical,vertical,1,0.79999539454778,green,5,NaN,672.5,379.163522034968,NaN,NaN,672.5,820.836477965032,927.5,820.836477965032,1055,600,927.5,379.163522034968,672.5,379.163522034968,545,600,0,0,0,0,4,0,vertical,vertical,vertical,vertical,vertical,vertical
1c,7,100132,2,15,79,18,M,NA,variable,homogeneous,6,absent,0.795045852661133,1,horizontal,horizontal,1,0.929404179255168,red,2,NaN,1054.96116226488,604.450363641507,NaN,NaN,923.626453162816,823.028025320546,1054.96116226488,604.450363641507,931.334709102064,381.422338320961,676.373546837184,376.971974679454,545.03883773512,595.549636358493,668.665290897936,818.577661679039,0,4,0,0,0,0,horizontal,horizontal,vertical,vertical,vertical,horizontal
1c,7,100132,2,16,80,18,M,NA,variable,homogeneous,6,absent,0.740989923477173,1,vertical,vertical,1,0.694115479787191,green,4,NaN,903.717843984329,367.045908301137,NaN,NaN,696.282156015671,832.954091698863,949.885239334581,806.299333565612,1053.60308331891,573.345241866748,903.717843984329,367.045908301137,650.114760665419,393.700666434388,546.39691668109,626.654758133252,0,0,0,4,0,0,horizontal,horizontal,horizontal,vertical,vertical,horizontal
1c,7,100132,2,17,81,18,M,NA,variable,homogeneous,6,present,0.800266981124878,1,vertical,vertical,1,0.611764434973399,red,4,3,919.715248510402,374.848363820974,1054.84466088987,591.100628340862,680.284751489598,825.151636179026,935.129412379467,816.252264519889,1054.84466088987,591.100628340862,919.715248510402,374.848363820974,664.870587620533,383.747735480111,545.155339110131,608.899371659138,0,0,0,4,0,0,horizontal,horizontal,vertical,vertical,vertical,vertical
1c,7,100132,2,18,82,18,M,NA,variable,homogeneous,4,present,0.716104030609131,1,horizontal,horizontal,1,0.776466524600983,green,4,3,546.900731331463,631.076682568313,768.923317431687,346.900731331463,831.076682568313,853.099268668537,1053.09926866854,568.923317431687,768.923317431687,346.900731331463,546.900731331463,631.076682568313,0,0,0,0,0,0,0,4,NaN,NaN,vertical,horizontal,horizontal,horizontal,none,none
1c,7,100132,2,19,83,18,M,NA,variable,homogeneous,3,present,0.716572999954224,1,vertical,vertical,1,0.694115479787191,red,2,3,1054.0296480134,622.224714400653,692.232343256122,368.891514305654,653.738008730483,808.883771293693,1054.0296480134,622.224714400653,692.232343256122,368.891514305654,0,0,0,0,0,0,0,4,0,NaN,NaN,NaN,horizontal,vertical,vertical,none,none,none
1c,7,100132,2,20,84,18,M,NA,variable,homogeneous,6,present,0.795330047607422,1,vertical,vertical,1,0.999990789095561,red,6,1,565.271262369628,699.636437764765,768.923317431687,853.099268668537,768.923317431687,853.099268668537,1003.65205506206,753.462830903772,1034.72873763037,500.363562235235,831.076682568313,346.900731331463,596.34794493794,446.537169096228,565.271262369628,699.636437764765,0,0,0,0,0,4,vertical,horizontal,horizontal,vertical,vertical,vertical
1c,7,100132,2,21,85,18,M,NA,variable,homogeneous,3,present,0.705805063247681,1,horizontal,horizontal,1,0.729408784707387,red,2,1,1050.31493177915,648.656293821019,632.704947607421,792.450942956807,632.704947607421,792.450942956807,1050.31493177915,648.656293821019,716.980120613425,358.892763222174,0,0,0,0,0,0,0,4,0,NaN,NaN,NaN,horizontal,horizontal,vertical,none,none,none
1c,7,100132,2,22,86,18,M,NA,variable,homogeneous,4,present,0.766914129257202,1,horizontal,horizontal,1,0.741173219680786,green,4,2,563.568117085469,504.475318678942,1036.43188291453,695.524681321058,704.475318678942,836.431882914531,1036.43188291453,695.524681321058,895.524681321058,363.568117085469,563.568117085469,504.475318678942,0,0,0,0,0,0,0,4,NaN,NaN,horizontal,vertical,horizontal,horizontal,none,none
1c,7,100132,2,23,87,18,M,NA,variable,homogeneous,6,absent,1.05852699279785,1,horizontal,horizontal,1,0.788230959574381,green,4,NaN,817.787900804752,345.621167183745,NaN,NaN,782.212099195248,854.378832816255,1011.40458100154,742.594190385041,1029.19248180629,488.215357568785,817.787900804752,345.621167183745,588.595418998464,457.40580961496,570.807518193712,711.784642431215,0,0,0,4,0,0,horizontal,vertical,horizontal,horizontal,horizontal,horizontal
1c,7,100132,2,24,88,18,M,NA,variable,homogeneous,5,absent,0.730756998062134,1,vertical,vertical,1,0.952933049201965,red,4,NaN,704.475318678942,363.568117085469,NaN,NaN,738.309916622085,847.425410200379,1016.25226451989,735.129412379467,995.341332995339,436.089159529932,704.475318678942,363.568117085469,545.621167183745,617.787900804752,0,0,0,0,0,4,0,NaN,horizontal,horizontal,horizontal,vertical,horizontal,none
1c,7,100132,2,25,89,18,M,NA,variable,homogeneous,5,absent,0.93654990196228,1,horizontal,horizontal,1,0.941168614228566,red,5,NaN,558.892763222174,683.019879386575,NaN,NaN,804.450363641507,854.96116226488,1043.85771277057,674.554784704298,946.261991269517,391.116228706307,646.537169096228,396.34794493794,558.892763222174,683.019879386575,0,0,0,0,0,0,4,NaN,vertical,vertical,vertical,horizontal,horizontal,none
1c,7,100132,2,26,90,18,M,NA,variable,homogeneous,4,absent,0.784542083740234,1,vertical,vertical,1,0.858817569414775,green,3,NaN,773.345241866748,346.39691668109,NaN,NaN,826.654758133252,853.60308331891,1053.60308331891,573.345241866748,773.345241866748,346.39691668109,546.39691668109,626.654758133252,0,0,0,0,0,0,4,0,NaN,NaN,horizontal,horizontal,vertical,horizontal,none,none
1c,7,100132,2,27,91,18,M,NA,variable,homogeneous,4,absent,0.841038942337036,1,horizontal,horizontal,1,0.835288699467977,red,2,NaN,1047.42541020038,538.309916622085,NaN,NaN,861.690083377915,847.425410200379,1047.42541020038,538.309916622085,738.309916622085,352.574589799621,552.574589799621,661.690083377915,0,0,0,0,0,4,0,0,NaN,NaN,vertical,horizontal,horizontal,vertical,none,none
1c,7,100132,2,28,92,18,M,NA,variable,homogeneous,5,present,0.923424959182739,1,vertical,vertical,1,1.07057739893595,red,5,2,552.574589799621,538.309916622085,963.910840470068,795.341332995339,664.870587620533,816.252264519889,963.910840470068,795.341332995339,1036.43188291453,504.475318678942,782.212099195248,345.621167183745,552.574589799621,538.309916622085,0,0,0,0,0,0,4,NaN,vertical,horizontal,horizontal,vertical,vertical,none
1c,7,100132,2,29,93,18,M,NA,variable,homogeneous,4,present,0.658820152282715,1,horizontal,horizontal,1,1.04704852898916,red,3,1,760.109211414741,348.13947314824,839.890788585259,851.86052685176,839.890788585259,851.86052685176,1051.86052685176,560.109211414741,760.109211414741,348.13947314824,548.13947314824,639.890788585259,0,0,0,0,0,0,4,0,NaN,NaN,horizontal,horizontal,horizontal,vertical,none,none
1c,7,100132,2,30,94,18,M,NA,variable,homogeneous,4,present,0.771863222122192,1,vertical,vertical,1,0.976461919148763,red,3,2,696.282156015671,367.045908301137,1032.95409169886,496.282156015671,903.717843984329,832.954091698863,1032.95409169886,496.282156015671,696.282156015671,367.045908301137,567.045908301137,703.717843984329,0,0,0,0,0,0,4,0,NaN,NaN,vertical,vertical,vertical,horizontal,none,none
1c,7,100132,2,31,95,18,M,NA,variable,homogeneous,3,absent,0.690253019332886,1,vertical,vertical,1,0.729408784707387,green,2,NaN,899.636437764765,365.271262369628,NaN,NaN,953.462830903772,803.65205506206,899.636437764765,365.271262369628,546.900731331463,631.076682568313,0,0,0,0,0,0,0,4,0,NaN,NaN,NaN,vertical,vertical,horizontal,none,none,none
1c,7,100132,2,32,96,18,M,NA,variable,homogeneous,3,present,0.645431041717529,1,vertical,vertical,1,0.870582004388173,green,2,3,1023.02802532055,476.373546837184,581.422338320961,468.665290897936,795.549636358493,854.96116226488,1023.02802532055,476.373546837184,581.422338320961,468.665290897936,0,0,0,0,0,0,0,4,0,NaN,NaN,NaN,vertical,vertical,horizontal,none,none,none
1c,7,100132,2,33,97,18,M,NA,variable,homogeneous,3,absent,0.737313985824585,1,vertical,vertical,1,0.941168614228566,red,1,NaN,583.747735480111,735.129412379467,NaN,NaN,583.747735480111,735.129412379467,1025.15163617903,719.715248510402,791.100628340862,345.155339110131,0,0,0,0,0,0,4,0,0,NaN,NaN,NaN,vertical,vertical,vertical,none,none,none
1c,7,100132,2,34,98,18,M,NA,variable,homogeneous,4,absent,0.680757999420166,1,vertical,vertical,1,0.835288699467977,red,2,NaN,1053.60308331891,573.345241866748,NaN,NaN,826.654758133252,853.60308331891,1053.60308331891,573.345241866748,773.345241866748,346.39691668109,546.39691668109,626.654758133252,0,0,0,0,0,4,0,0,NaN,NaN,vertical,vertical,vertical,vertical,none,none
1c,7,100132,2,35,99,18,M,NA,variable,homogeneous,3,absent,0.843526124954224,1,horizontal,horizontal,1,0.658822174866994,red,3,NaN,553.688914296288,665.998856501143,NaN,NaN,980.31222920257,780.31222920257,865.998856501143,353.688914296288,553.688914296288,665.998856501143,0,0,0,0,0,0,0,0,4,NaN,NaN,NaN,vertical,horizontal,horizontal,none,none,none
1c,7,100132,2,36,100,18,M,NA,variable,homogeneous,3,present,1.13740706443787,1,vertical,vertical,1,1.03528409401576,green,1,3,804.450363641507,854.96116226488,576.971974679454,476.373546837184,804.450363641507,854.96116226488,1018.57766167904,468.665290897936,576.971974679454,476.373546837184,0,0,0,0,0,0,4,0,0,NaN,NaN,NaN,vertical,horizontal,vertical,none,none,none
1c,7,100132,2,37,101,18,M,NA,variable,homogeneous,4,present,0.747232913970947,1,vertical,vertical,1,0.752937654654185,green,2,1,1016.25226451989,735.129412379467,664.870587620533,816.252264519889,664.870587620533,816.252264519889,1016.25226451989,735.129412379467,935.129412379467,383.747735480111,583.747735480111,464.870587620533,0,0,0,0,0,4,0,0,NaN,NaN,horizontal,vertical,vertical,horizontal,none,none
1c,7,100132,2,38,102,18,M,NA,variable,homogeneous,5,present,0.674689054489136,1,vertical,vertical,1,0.823524264494578,green,2,4,1051.86052685176,639.890788585259,619.68777079743,419.68777079743,839.890788585259,851.86052685176,1051.86052685176,639.890788585259,915.767577433584,372.793336331966,619.68777079743,419.68777079743,572.793336331966,715.767577433584,0,0,0,4,0,0,0,NaN,vertical,vertical,horizontal,horizontal,horizontal,none
1c,7,100132,2,39,103,18,M,NA,variable,homogeneous,5,present,0.618381977081299,1,horizontal,horizontal,1,0.894110874334971,green,5,2,613.504806087112,773.909581815937,1053.09926866854,568.923317431687,907.767656743878,831.108485694346,1053.09926866854,568.923317431687,848.656293821019,349.685068220846,576.971974679454,476.373546837184,613.504806087112,773.909581815937,0,0,0,0,0,0,4,NaN,horizontal,horizontal,vertical,vertical,horizontal,none
1c,7,100132,2,40,104,18,M,NA,variable,homogeneous,3,present,0.802360057830811,1,horizontal,horizontal,1,0.776466524600983,green,3,2,560.378381699593,687.215136548046,844.280285305067,348.874022981887,995.341332995339,763.910840470068,844.280285305067,348.874022981887,560.378381699593,687.215136548046,0,0,0,0,0,0,0,0,4,NaN,NaN,NaN,horizontal,vertical,horizontal,none,none,none
1c,7,100132,2,41,105,18,M,NA,variable,homogeneous,6,present,1.69313597679138,1,horizontal,horizontal,1,0.729408784707387,green,4,2,883.019879386575,358.892763222174,967.295052392579,792.450942956807,716.980120613425,841.107236777826,967.295052392579,792.450942956807,1050.31493177915,551.343706178981,883.019879386575,358.892763222174,632.704947607421,407.549057043193,549.685068220846,648.656293821019,0,0,0,4,0,0,vertical,horizontal,vertical,horizontal,horizontal,vertical
1c,7,100132,2,42,106,18,M,NA,variable,homogeneous,5,present,0.787863969802856,1,horizontal,horizontal,1,0.623528869946798,green,1,5,883.019879386575,841.107236777826,596.34794493794,753.462830903772,883.019879386575,841.107236777826,1054.96116226488,595.549636358493,874.554784704298,356.142287229426,591.116228706307,453.738008730483,596.34794493794,753.462830903772,0,0,4,0,0,0,0,NaN,horizontal,horizontal,vertical,vertical,vertical,none
1c,7,100132,2,43,107,18,M,NA,variable,homogeneous,5,present,1.24756407737732,1,vertical,vertical,1,0.788230959574381,red,4,1,704.475318678942,363.568117085469,738.309916622085,847.425410200379,738.309916622085,847.425410200379,1016.25226451989,735.129412379467,995.341332995339,436.089159529932,704.475318678942,363.568117085469,545.621167183745,617.787900804752,0,0,0,0,0,4,0,NaN,horizontal,vertical,vertical,vertical,horizontal,none
1c,7,100132,2,44,108,18,M,NA,variable,homogeneous,5,absent,0.75655198097229,1,vertical,vertical,1,0.976461919148763,red,4,NaN,639.523300282292,401.827779828472,NaN,NaN,813.345668841951,854.650531362416,1046.31108570371,665.998856501143,938.882953928832,386.139005173917,639.523300282292,401.827779828472,561.936991243214,691.383827134052,0,0,0,0,0,4,0,NaN,horizontal,vertical,horizontal,vertical,vertical,none
1c,7,100132,2,45,109,18,M,NA,variable,homogeneous,4,present,0.766765117645264,0,vertical,horizontal,1,0.952933049201965,green,3,4,919.715248510402,374.848363820974,574.848363820974,480.284751489598,680.284751489598,825.151636179026,1025.15163617903,719.715248510402,919.715248510402,374.848363820974,574.848363820974,480.284751489598,0,0,0,0,0,0,4,0,NaN,NaN,horizontal,vertical,vertical,vertical,none,none
1c,7,100132,2,46,110,18,M,NA,variable,homogeneous,6,absent,0.715296983718872,1,vertical,vertical,1,0.858817569414775,red,3,NaN,1031.10848569435,492.232343256122,NaN,NaN,777.775285599347,854.029648013395,1008.88377129369,746.261991269517,1031.10848569435,492.232343256122,822.224714400653,345.970351986605,591.116228706307,453.738008730483,568.891514305654,707.767656743878,0,0,4,0,0,0,horizontal,horizontal,vertical,vertical,horizontal,vertical
1c,7,100132,2,47,111,18,M,NA,variable,homogeneous,3,absent,0.752837181091309,1,horizontal,horizontal,1,0.941168614228566,green,2,NaN,1018.57766167904,468.665290897936,NaN,NaN,804.450363641507,854.96116226488,1018.57766167904,468.665290897936,576.971974679454,476.373546837184,0,0,0,0,0,0,0,4,0,NaN,NaN,NaN,vertical,horizontal,vertical,none,none,none
1c,7,100132,2,48,112,18,M,NA,variable,homogeneous,5,absent,1.09860801696777,1,vertical,vertical,1,0.729408784707387,green,2,NaN,1047.42541020038,538.309916622085,NaN,NaN,935.129412379467,816.252264519889,1047.42541020038,538.309916622085,817.787900804752,345.621167183745,563.568117085469,504.475318678942,636.089159529932,795.341332995339,0,0,0,4,0,0,0,NaN,horizontal,vertical,horizontal,horizontal,vertical,none
1c,7,100132,2,49,113,18,M,NA,variable,homogeneous,6,absent,0.969974994659424,1,horizontal,horizontal,1,0.670586609840393,red,5,NaN,581.422338320961,468.665290897936,NaN,NaN,795.549636358493,854.96116226488,1018.57766167904,731.334709102064,1023.02802532055,476.373546837184,804.450363641507,345.03883773512,581.422338320961,468.665290897936,576.971974679454,723.626453162816,0,0,0,0,4,0,horizontal,horizontal,horizontal,vertical,horizontal,horizontal
1c,7,100132,2,50,114,18,M,NA,variable,homogeneous,4,absent,0.87562084197998,1,vertical,vertical,1,0.894110874334971,red,4,NaN,581.422338320961,731.334709102064,NaN,NaN,931.334709102064,818.577661679039,1018.57766167904,468.665290897936,668.665290897936,381.422338320961,581.422338320961,731.334709102064,0,0,0,0,0,0,0,4,NaN,NaN,vertical,horizontal,horizontal,vertical,none,none
1c,7,100132,2,51,115,18,M,NA,variable,homogeneous,3,absent,0.74736213684082,1,vertical,vertical,1,0.894110874334971,green,2,NaN,891.383827134052,361.936991243214,NaN,NaN,960.476699717708,798.172220171528,891.383827134052,361.936991243214,548.13947314824,639.890788585259,0,0,0,0,0,0,0,4,0,NaN,NaN,NaN,vertical,vertical,vertical,none,none,none
1c,7,100132,2,52,116,18,M,NA,variable,homogeneous,6,present,0.913285970687866,1,horizontal,horizontal,1,0.952933049201965,red,6,5,664.870587620533,816.252264519889,545.155339110131,591.100628340862,919.715248510402,825.151636179026,1054.84466088987,608.899371659138,935.129412379467,383.747735480111,680.284751489598,374.848363820974,545.155339110131,591.100628340862,664.870587620533,816.252264519889,0,0,0,0,0,4,vertical,horizontal,vertical,horizontal,vertical,horizontal
1c,7,100132,2,53,117,18,M,NA,variable,homogeneous,4,absent,0.7551589012146,1,horizontal,horizontal,1,0.776466524600983,green,4,NaN,547.481642470899,635.489140744817,NaN,NaN,835.489140744817,852.518357529101,1052.5183575291,564.510859255183,764.510859255183,347.4816424709,547.481642470899,635.489140744817,0,0,0,0,0,0,0,4,NaN,NaN,horizontal,vertical,vertical,horizontal,none,none
1c,7,100132,2,54,118,18,M,NA,variable,homogeneous,3,absent,0.787678003311157,1,horizontal,horizontal,1,0.658822174866994,red,3,NaN,616.568350913644,422.862115532956,NaN,NaN,738.309916622085,847.425410200379,1045.12173246427,529.712474266665,616.568350913644,422.862115532956,0,0,0,0,0,0,0,0,4,NaN,NaN,NaN,horizontal,horizontal,horizontal,none,none,none
1c,7,100132,2,55,119,18,M,NA,variable,homogeneous,5,absent,1.00487017631531,1,horizontal,horizontal,1,0.647057739893595,red,3,NaN,887.215136548046,360.378381699593,NaN,NaN,870.287525733335,845.121732464271,1054.84466088987,608.899371659138,887.215136548046,360.378381699593,599.057257830286,443.006323791957,588.595418998464,742.594190385041,0,0,0,0,4,0,0,NaN,vertical,vertical,horizontal,horizontal,horizontal,none
1c,7,100132,2,56,120,18,M,NA,variable,homogeneous,5,present,1.21840906143188,1,vertical,vertical,1,0.870582004388173,green,1,2,891.383827134052,838.063008756786,1054.65053136242,586.654331158049,891.383827134052,838.063008756786,1054.65053136242,586.654331158049,865.998856501143,353.688914296288,586.139005173917,461.117046071168,601.827779828472,760.476699717708,0,0,4,0,0,0,0,NaN,vertical,horizontal,vertical,horizontal,horizontal,none
1c,7,100132,2,57,121,18,M,NA,variable,homogeneous,5,absent,0.638617992401123,1,horizontal,horizontal,1,0.988226354122162,green,3,NaN,1031.10848569435,492.232343256122,NaN,NaN,676.373546837184,823.028025320546,973.909581815937,786.495193912888,1031.10848569435,492.232343256122,768.923317431687,346.900731331463,549.685068220846,551.343706178981,0,0,0,0,4,0,0,NaN,vertical,vertical,horizontal,horizontal,vertical,none
1c,7,100132,2,58,122,18,M,NA,variable,homogeneous,6,absent,0.743468046188354,1,horizontal,horizontal,1,0.79999539454778,green,3,NaN,960.476699717708,401.827779828472,NaN,NaN,891.383827134052,838.063008756786,1051.86052685176,639.890788585259,960.476699717708,401.827779828472,708.616172865948,361.936991243214,548.13947314824,560.109211414741,639.523300282292,798.172220171528,0,0,4,0,0,0,vertical,vertical,horizontal,horizontal,vertical,horizontal
1c,7,100132,2,59,123,18,M,NA,variable,homogeneous,6,present,0.967144966125488,1,vertical,vertical,1,1.02351965904236,green,1,2,865.998856501143,846.311085703712,1046.31108570371,665.998856501143,865.998856501143,846.311085703712,1046.31108570371,665.998856501143,980.31222920257,419.68777079743,734.001143498857,353.688914296288,553.688914296288,534.001143498857,619.68777079743,780.31222920257,4,0,0,0,0,0,vertical,vertical,vertical,vertical,horizontal,horizontal
1c,7,100132,2,60,124,18,M,NA,variable,homogeneous,6,present,1.05020618438721,1,vertical,vertical,1,0.764702089627584,green,5,6,636.089159529932,404.658667004661,548.874022981887,644.280285305067,712.784863451954,839.621618300407,963.910840470068,795.341332995339,1051.12597701811,555.719714694933,887.215136548046,360.378381699593,636.089159529932,404.658667004661,548.874022981887,644.280285305067,0,0,0,0,4,0,horizontal,vertical,horizontal,vertical,vertical,horizontal
1c,7,100132,2,61,125,18,M,NA,variable,homogeneous,5,absent,0.635890960693359,1,vertical,vertical,1,0.635293304920197,green,4,NaN,632.704947607421,407.549057043193,NaN,NaN,822.224714400653,854.029648013395,1048.46436652023,657.362518857686,931.334709102064,381.422338320961,632.704947607421,407.549057043193,565.271262369628,699.636437764765,0,0,0,0,0,4,0,NaN,horizontal,vertical,vertical,vertical,horizontal,none
1c,7,100132,2,62,126,18,M,NA,variable,homogeneous,5,present,0.869741916656494,1,horizontal,horizontal,1,0.847053134441376,red,5,2,548.874022981887,644.280285305067,1029.19248180629,711.784642431215,764.510859255183,852.518357529101,1029.19248180629,711.784642431215,977.137884467044,416.568350913644,680.284751489598,374.848363820974,548.874022981887,644.280285305067,0,0,0,0,0,0,4,NaN,horizontal,horizontal,horizontal,vertical,horizontal,none
1c,7,100132,2,63,127,18,M,NA,variable,homogeneous,3,absent,1.25694799423218,1,horizontal,horizontal,1,1.08234183390935,green,2,NaN,1042.51941165526,678.799333565612,NaN,NaN,610.498069503264,770.628304621509,1042.51941165526,678.799333565612,746.982518841471,350.57236181288,0,0,0,0,0,0,0,4,0,NaN,NaN,NaN,horizontal,horizontal,horizontal,none,none,none
1c,7,100132,2,64,128,18,M,NA,variable,homogeneous,4,absent,0.845271825790405,1,horizontal,horizontal,1,0.752937654654185,red,2,NaN,992.450942956807,767.295052392579,NaN,NaN,632.704947607421,792.450942956807,992.450942956807,767.295052392579,967.295052392579,407.549057043193,607.549057043193,432.704947607421,0,0,0,0,0,4,0,0,NaN,NaN,vertical,horizontal,vertical,horizontal,none,none
1c,7,100132,3,1,129,18,M,NA,variable,homogeneous,6,absent,0.924499988555908,1,horizontal,horizontal,1,0.729408784707387,red,4,NaN,800,345,NaN,NaN,800,855,1020.83647796503,727.5,1020.83647796503,472.5,800,345,579.163522034968,472.5,579.163522034968,727.5,0,0,0,4,0,0,horizontal,vertical,vertical,horizontal,vertical,horizontal
1c,7,100132,3,2,130,18,M,NA,variable,homogeneous,6,present,0.978046894073486,1,horizontal,horizontal,1,0.952933049201965,green,3,5,1051.86052685176,560.109211414741,639.523300282292,401.827779828472,708.616172865948,838.063008756786,960.476699717708,798.172220171528,1051.86052685176,560.109211414741,891.383827134052,361.936991243214,639.523300282292,401.827779828472,548.13947314824,639.890788585259,0,0,4,0,0,0,horizontal,horizontal,horizontal,vertical,vertical,vertical
1c,7,100132,3,3,131,18,M,NA,variable,homogeneous,5,absent,0.922144889831543,1,vertical,vertical,1,0.811759829521179,red,2,NaN,1053.09926866854,631.076682568313,NaN,NaN,848.656293821019,850.314931779154,1053.09926866854,631.076682568313,907.767656743878,368.891514305654,613.504806087112,426.090418184063,576.971974679454,723.626453162816,0,0,0,4,0,0,0,NaN,vertical,vertical,vertical,vertical,horizontal,none
1c,7,100132,3,4,132,18,M,NA,variable,homogeneous,4,present,0.785757064819336,1,horizontal,horizontal,1,0.647057739893595,green,4,1,558.892763222174,683.019879386575,883.019879386575,841.107236777826,883.019879386575,841.107236777826,1041.10723677783,516.980120613425,716.980120613425,358.892763222174,558.892763222174,683.019879386575,0,0,0,0,0,0,0,4,NaN,NaN,horizontal,vertical,horizontal,horizontal,none,none
1c,7,100132,3,5,133,18,M,NA,variable,homogeneous,6,present,0.851592063903809,1,horizontal,horizontal,1,0.90587530930837,red,2,6,1049.42763818712,653.017481158529,629.371695378491,789.501930496736,878.799333565612,842.519411655264,1049.42763818712,653.017481158529,970.628304621509,410.498069503264,721.200666434388,357.480588344736,550.57236181288,546.982518841471,629.371695378491,789.501930496736,0,4,0,0,0,0,horizontal,horizontal,horizontal,horizontal,horizontal,horizontal
1c,7,100132,3,6,134,18,M,NA,variable,homogeneous,5,absent,0.677564144134521,1,horizontal,horizontal,1,0.835288699467977,red,2,NaN,1051.12597701811,555.719714694933,NaN,NaN,919.715248510402,825.151636179026,1051.12597701811,555.719714694933,835.489140744817,347.4816424709,570.807518193712,488.215357568785,622.862115532956,783.431649086356,0,0,0,4,0,0,0,NaN,horizontal,horizontal,horizontal,horizontal,horizontal,none
1c,7,100132,3,7,135,18,M,NA,variable,homogeneous,5,present,0.878507852554321,1,horizontal,horizontal,1,0.764702089627584,red,5,4,553.688914296288,665.998856501143,661.117046071168,386.139005173917,786.654331158049,854.650531362416,1038.06300875679,691.383827134052,960.476699717708,401.827779828472,661.117046071168,386.139005173917,553.688914296288,665.998856501143,0,0,0,0,0,0,4,NaN,vertical,horizontal,horizontal,horizontal,horizontal,none
1c,7,100132,3,8,136,18,M,NA,variable,homogeneous,5,present,0.624425888061523,1,vertical,vertical,1,0.811759829521179,green,2,4,1050.31493177915,551.343706178981,568.891514305654,492.232343256122,923.626453162816,823.028025320546,1050.31493177915,551.343706178981,831.076682568313,346.900731331463,568.891514305654,492.232343256122,626.090418184063,786.495193912888,0,0,0,4,0,0,0,NaN,vertical,vertical,horizontal,vertical,vertical,none
1c,7,100132,3,9,137,18,M,NA,variable,homogeneous,3,present,0.636693954467773,1,vertical,vertical,1,0.776466524600983,green,2,1,1051.86052685176,560.109211414741,708.616172865948,838.063008756786,708.616172865948,838.063008756786,1051.86052685176,560.109211414741,639.523300282292,401.827779828472,0,0,0,0,0,0,0,4,0,NaN,NaN,NaN,horizontal,vertical,horizontal,none,none,none
1c,7,100132,3,10,138,18,M,NA,variable,homogeneous,6,present,0.858047008514404,0,vertical,horizontal,1,0.811759829521179,red,5,6,574.848363820974,480.284751489598,583.747735480111,735.129412379467,808.899371659138,854.844660889869,1025.15163617903,719.715248510402,1016.25226451989,464.870587620533,791.100628340862,345.155339110131,574.848363820974,480.284751489598,583.747735480111,735.129412379467,0,0,0,0,4,0,horizontal,vertical,horizontal,horizontal,vertical,vertical
1c,7,100132,3,11,139,18,M,NA,variable,homogeneous,4,absent,0.779813051223755,1,horizontal,horizontal,1,0.823524264494578,red,4,NaN,619.68777079743,780.31222920257,NaN,NaN,980.31222920257,780.31222920257,980.31222920257,419.68777079743,619.68777079743,419.68777079743,619.68777079743,780.31222920257,0,0,0,0,0,0,0,4,NaN,NaN,horizontal,horizontal,vertical,horizontal,none,none
1c,7,100132,3,12,140,18,M,NA,variable,homogeneous,5,present,0.86449122428894,1,horizontal,horizontal,1,1.04704852898916,red,1,4,839.890788585259,851.86052685176,619.68777079743,419.68777079743,839.890788585259,851.86052685176,1051.86052685176,639.890788585259,915.767577433584,372.793336331966,619.68777079743,419.68777079743,572.793336331966,715.767577433584,0,0,4,0,0,0,0,NaN,horizontal,vertical,horizontal,horizontal,vertical,none
1c,7,100132,3,13,141,18,M,NA,variable,homogeneous,3,absent,0.69399619102478,1,vertical,vertical,1,1.01175522406896,green,1,NaN,938.882953928832,813.860994826083,NaN,NaN,938.882953928832,813.860994826083,915.767577433584,372.793336331966,545.349468637584,613.345668841951,0,0,0,0,0,0,4,0,0,NaN,NaN,NaN,vertical,horizontal,vertical,none,none,none
1c,7,100132,3,14,142,18,M,NA,variable,homogeneous,6,absent,0.635792016983032,1,vertical,vertical,1,0.776466524600983,red,1,NaN,813.345668841951,854.650531362416,NaN,NaN,813.345668841951,854.650531362416,1027.20666366803,715.767577433584,1013.86099482608,461.117046071168,786.654331158049,345.349468637584,572.793336331966,484.232422566416,586.139005173917,738.882953928832,4,0,0,0,0,0,vertical,horizontal,horizontal,horizontal,horizontal,horizontal
1c,7,100132,3,15,143,18,M,NA,variable,homogeneous,3,absent,0.798717975616455,1,vertical,vertical,1,1.09410626888275,red,3,NaN,545.349468637584,586.654331158049,NaN,NaN,915.767577433584,827.206663668034,938.882953928832,386.139005173917,545.349468637584,586.654331158049,0,0,0,0,0,0,0,0,4,NaN,NaN,NaN,horizontal,horizontal,vertical,none,none,none
1c,7,100132,3,16,144,18,M,NA,variable,homogeneous,4,absent,0.869014978408813,1,horizontal,horizontal,1,0.894110874334971,green,1,NaN,813.345668841951,854.650531362416,NaN,NaN,813.345668841951,854.650531362416,1054.65053136242,586.654331158049,786.654331158049,345.349468637584,545.349468637584,613.345668841951,0,0,0,0,4,0,0,0,NaN,NaN,horizontal,vertical,horizontal,horizontal,none,none
1c,7,100132,3,17,145,18,M,NA,variable,homogeneous,4,absent,0.968388080596924,1,vertical,vertical,1,1.09410626888275,red,3,NaN,721.200666434388,357.480588344736,NaN,NaN,878.799333565612,842.519411655264,1042.51941165526,521.200666434388,721.200666434388,357.480588344736,557.480588344736,678.799333565612,0,0,0,0,0,0,4,0,NaN,NaN,vertical,horizontal,vertical,vertical,none,none
1c,7,100132,3,18,146,18,M,NA,variable,homogeneous,6,absent,0.77496600151062,1,vertical,vertical,1,0.752937654654185,green,5,NaN,579.163522034968,472.5,NaN,NaN,800,855,1020.83647796503,727.5,1020.83647796503,472.5,800,345,579.163522034968,472.5,579.163522034968,727.5,0,0,0,0,4,0,horizontal,vertical,horizontal,vertical,vertical,vertical
1c,7,100132,3,19,147,18,M,NA,variable,homogeneous,5,present,0.881015062332153,1,vertical,vertical,1,0.941168614228566,green,3,5,983.431649086356,422.862115532956,547.481642470899,635.489140744817,755.719714694933,851.125977018113,1025.15163617903,719.715248510402,983.431649086356,422.862115532956,688.215357568785,370.807518193712,547.481642470899,635.489140744817,0,0,0,0,4,0,0,NaN,vertical,vertical,vertical,vertical,horizontal,none
1c,7,100132,3,20,148,18,M,NA,variable,homogeneous,3,present,0.863896131515503,1,vertical,vertical,1,0.835288699467977,red,2,3,1029.19248180629,711.784642431215,782.212099195248,345.621167183745,588.595418998464,742.594190385041,1029.19248180629,711.784642431215,782.212099195248,345.621167183745,0,0,0,0,0,0,0,4,0,NaN,NaN,NaN,horizontal,vertical,vertical,none,none,none
1c,7,100132,3,21,149,18,M,NA,variable,homogeneous,5,absent,0.73024582862854,1,vertical,vertical,1,0.847053134441376,green,4,NaN,773.345241866748,346.39691668109,NaN,NaN,672.5,820.836477965032,970.628304621509,789.501930496736,1032.95409169886,496.282156015671,773.345241866748,346.39691668109,550.57236181288,546.982518841471,0,0,0,0,0,4,0,NaN,vertical,horizontal,horizontal,vertical,vertical,none
1c,7,100132,3,22,150,18,M,NA,variable,homogeneous,3,present,1.14151787757874,1,vertical,vertical,1,1.02351965904236,red,3,2,632.704947607421,407.549057043193,1050.31493177915,551.343706178981,716.980120613425,841.107236777826,1050.31493177915,551.343706178981,632.704947607421,407.549057043193,0,0,0,0,0,0,0,0,4,NaN,NaN,NaN,horizontal,vertical,vertical,none,none,none
1c,7,100132,3,23,151,18,M,NA,variable,homogeneous,4,absent,0.673751831054688,1,horizontal,horizontal,1,0.658822174866994,green,3,NaN,668.665290897936,381.422338320961,NaN,NaN,931.334709102064,818.577661679039,1018.57766167904,468.665290897936,668.665290897936,381.422338320961,581.422338320961,731.334709102064,0,0,0,0,0,0,4,0,NaN,NaN,horizontal,horizontal,horizontal,vertical,none,none
1c,7,100132,3,24,152,18,M,NA,variable,homogeneous,4,present,0.668144941329956,1,vertical,vertical,1,1.03528409401576,green,2,1,1046.31108570371,665.998856501143,734.001143498857,846.311085703712,734.001143498857,846.311085703712,1046.31108570371,665.998856501143,865.998856501143,353.688914296288,553.688914296288,534.001143498857,0,0,0,0,0,4,0,0,NaN,NaN,horizontal,vertical,vertical,vertical,none,none
1c,7,100132,3,25,153,18,M,NA,variable,homogeneous,5,present,0.958441972732544,1,horizontal,horizontal,1,0.847053134441376,green,1,3,676.373546837184,823.028025320546,1031.10848569435,492.232343256122,676.373546837184,823.028025320546,973.909581815937,786.495193912888,1031.10848569435,492.232343256122,768.923317431687,346.900731331463,549.685068220846,551.343706178981,0,0,4,0,0,0,0,NaN,horizontal,horizontal,horizontal,horizontal,horizontal,none
1c,7,100132,3,26,154,18,M,NA,variable,homogeneous,4,present,1.11554598808289,1,vertical,vertical,1,0.894110874334971,red,3,4,938.882953928832,386.139005173917,586.139005173917,461.117046071168,661.117046071168,813.860994826083,1013.86099482608,738.882953928832,938.882953928832,386.139005173917,586.139005173917,461.117046071168,0,0,0,0,0,0,4,0,NaN,NaN,vertical,horizontal,vertical,vertical,none,none
1c,7,100132,3,27,155,18,M,NA,variable,homogeneous,3,present,0.972724914550781,1,horizontal,horizontal,1,0.929404179255168,red,2,3,813.345668841951,345.349468637584,572.793336331966,715.767577433584,1013.86099482608,738.882953928832,813.345668841951,345.349468637584,572.793336331966,715.767577433584,0,0,0,0,0,0,0,4,0,NaN,NaN,NaN,horizontal,horizontal,horizontal,none,none,none
1c,7,100132,3,28,156,18,M,NA,variable,homogeneous,4,absent,0.904060840606689,1,vertical,vertical,1,0.788230959574381,red,4,NaN,579.163522034968,472.5,NaN,NaN,672.5,820.836477965032,1020.83647796503,727.5,927.5,379.163522034968,579.163522034968,472.5,0,0,0,0,0,0,0,4,NaN,NaN,vertical,vertical,vertical,vertical,none,none
1c,7,100132,3,29,157,18,M,NA,variable,homogeneous,5,absent,0.959611892700195,1,horizontal,horizontal,1,1.07057739893595,green,5,NaN,646.537169096228,803.65205506206,NaN,NaN,946.261991269517,808.883771293693,1043.85771277057,525.445215295702,804.450363641507,345.03883773512,558.892763222174,516.980120613425,646.537169096228,803.65205506206,0,0,0,0,0,0,4,NaN,horizontal,horizontal,horizontal,horizontal,horizontal,none
1c,7,100132,3,30,158,18,M,NA,variable,homogeneous,4,present,0.61614203453064,1,horizontal,horizontal,1,1.05881296396255,red,4,3,554.878267535729,670.287525733335,729.712474266665,354.878267535729,870.287525733335,845.121732464271,1045.12173246427,529.712474266665,729.712474266665,354.878267535729,554.878267535729,670.287525733335,0,0,0,0,0,0,0,4,NaN,NaN,horizontal,horizontal,horizontal,horizontal,none,none
1c,7,100132,3,31,159,18,M,NA,variable,homogeneous,6,present,0.719532012939453,1,vertical,vertical,1,0.952933049201965,green,3,6,1041.10723677783,516.980120613425,558.892763222174,683.019879386575,751.343706178981,850.314931779154,992.450942956807,767.295052392579,1041.10723677783,516.980120613425,848.656293821019,349.685068220846,607.549057043193,432.704947607421,558.892763222174,683.019879386575,0,0,4,0,0,0,vertical,vertical,vertical,vertical,horizontal,horizontal
1c,7,100132,3,32,160,18,M,NA,variable,homogeneous,6,present,0.877494812011719,1,horizontal,horizontal,1,0.952933049201965,green,4,5,729.712474266665,354.878267535729,552.574589799621,538.309916622085,870.287525733335,845.121732464271,1047.42541020038,661.690083377915,977.137884467044,416.568350913644,729.712474266665,354.878267535729,552.574589799621,538.309916622085,622.862115532956,783.431649086356,0,0,0,4,0,0,vertical,vertical,vertical,horizontal,vertical,vertical
1c,7,100132,3,33,161,18,M,NA,variable,homogeneous,4,absent,0.848729133605957,1,horizontal,horizontal,1,1.08234183390935,red,2,NaN,995.341332995339,436.089159529932,NaN,NaN,963.910840470068,795.341332995339,995.341332995339,436.089159529932,636.089159529932,404.658667004661,604.658667004661,763.910840470068,0,0,0,0,0,4,0,0,NaN,NaN,horizontal,horizontal,horizontal,vertical,none,none
1c,7,100132,3,34,162,18,M,NA,variable,homogeneous,5,absent,0.757054090499878,1,vertical,vertical,1,0.752937654654185,red,5,NaN,549.685068220846,648.656293821019,NaN,NaN,768.923317431687,853.099268668537,1031.10848569435,707.767656743878,973.909581815937,413.504806087112,676.373546837184,376.971974679454,549.685068220846,648.656293821019,0,0,0,0,0,0,4,NaN,vertical,horizontal,vertical,vertical,vertical,none
1c,7,100132,3,35,163,18,M,NA,variable,homogeneous,3,absent,0.648655891418457,1,horizontal,horizontal,1,1.02351965904236,red,2,NaN,1043.85771277057,674.554784704298,NaN,NaN,613.504806087112,773.909581815937,1043.85771277057,674.554784704298,742.637481142314,351.535633479765,0,0,0,0,0,0,0,4,0,NaN,NaN,NaN,vertical,horizontal,vertical,none,none,none
1c,7,100132,3,36,164,18,M,NA,variable,homogeneous,6,present,0.947132110595703,0,vertical,horizontal,1,0.658822174866994,green,5,4,650.114760665419,393.700666434388,903.717843984329,367.045908301137,696.282156015671,832.954091698863,949.885239334581,806.299333565612,1053.60308331891,573.345241866748,903.717843984329,367.045908301137,650.114760665419,393.700666434388,546.39691668109,626.654758133252,0,0,0,0,4,0,vertical,horizontal,horizontal,vertical,vertical,vertical
1c,7,100132,3,37,165,18,M,NA,variable,homogeneous,5,absent,0.798052072525024,1,vertical,vertical,1,0.988226354122162,green,2,NaN,956.993676208043,800.942742169714,NaN,NaN,657.405809614959,811.404581001536,956.993676208043,800.942742169714,1039.62161830041,512.784863451954,791.100628340862,345.155339110131,554.878267535729,529.712474266665,0,0,0,4,0,0,0,NaN,vertical,vertical,horizontal,vertical,vertical,none
1c,7,100132,3,38,166,18,M,NA,variable,homogeneous,4,present,0.729653120040894,1,horizontal,horizontal,1,0.788230959574381,green,3,1,742.637481142314,351.535633479765,857.362518857686,848.464366520235,857.362518857686,848.464366520235,1048.46436652023,542.637481142314,742.637481142314,351.535633479765,551.535633479765,657.362518857686,0,0,0,0,0,0,4,0,NaN,NaN,horizontal,horizontal,horizontal,horizontal,none,none
1c,7,100132,3,39,167,18,M,NA,variable,homogeneous,6,absent,1.27339601516724,1,horizontal,horizontal,1,0.635293304920197,red,6,NaN,563.568117085469,695.524681321058,NaN,NaN,764.510859255183,852.518357529101,1000.94274216971,756.993676208043,1036.43188291453,504.475318678942,835.489140744817,347.4816424709,599.057257830286,443.006323791957,563.568117085469,695.524681321058,0,0,0,0,0,4,vertical,vertical,vertical,horizontal,horizontal,horizontal
1c,7,100132,3,40,168,18,M,NA,variable,homogeneous,5,present,0.864933013916016,1,vertical,vertical,1,1.09410626888275,red,1,2,773.345241866748,853.60308331891,1032.95409169886,703.717843984329,773.345241866748,853.60308331891,1032.95409169886,703.717843984329,970.628304621509,410.498069503264,672.5,379.163522034968,550.57236181288,653.017481158529,0,0,4,0,0,0,0,NaN,vertical,horizontal,vertical,horizontal,horizontal,none
1c,7,100132,3,41,169,18,M,NA,variable,homogeneous,3,present,0.954839944839478,1,horizontal,horizontal,1,0.623528869946798,green,3,2,545.621167183745,582.212099195248,942.594190385041,388.595418998464,911.784642431215,829.192481806288,942.594190385041,388.595418998464,545.621167183745,582.212099195248,0,0,0,0,0,0,0,0,4,NaN,NaN,NaN,vertical,vertical,horizontal,none,none,none
1c,7,100132,3,42,170,18,M,NA,variable,homogeneous,4,present,1.16699886322021,1,vertical,vertical,1,0.647057739893595,red,2,3,1052.5183575291,564.510859255183,764.510859255183,347.4816424709,835.489140744817,852.518357529101,1052.5183575291,564.510859255183,764.510859255183,347.4816424709,547.481642470899,635.489140744817,0,0,0,0,0,4,0,0,NaN,NaN,vertical,vertical,horizontal,vertical,none,none
1c,7,100132,3,43,171,18,M,NA,variable,homogeneous,3,absent,1.23652911186218,1,horizontal,horizontal,1,0.882346439361572,green,2,NaN,907.767656743878,368.891514305654,NaN,NaN,946.261991269517,808.883771293693,907.767656743878,368.891514305654,545.970351986605,622.224714400653,0,0,0,0,0,0,0,4,0,NaN,NaN,NaN,horizontal,horizontal,horizontal,none,none,none
1c,7,100132,3,44,172,18,M,NA,variable,homogeneous,4,absent,0.821570158004761,1,vertical,vertical,1,0.623528869946798,green,4,NaN,551.535633479765,657.362518857686,NaN,NaN,857.362518857686,848.464366520235,1048.46436652023,542.637481142314,742.637481142314,351.535633479765,551.535633479765,657.362518857686,0,0,0,0,0,0,0,4,NaN,NaN,vertical,horizontal,vertical,vertical,none,none
1c,7,100132,3,45,173,18,M,NA,variable,homogeneous,4,present,1.46763801574707,1,vertical,vertical,1,1.05881296396255,green,2,3,1031.10848569435,707.767656743878,907.767656743878,368.891514305654,692.232343256122,831.108485694346,1031.10848569435,707.767656743878,907.767656743878,368.891514305654,568.891514305654,492.232343256122,0,0,0,0,0,4,0,0,NaN,NaN,horizontal,vertical,horizontal,vertical,none,none
1c,7,100132,3,46,174,18,M,NA,variable,homogeneous,5,absent,0.817570924758911,1,horizontal,horizontal,1,1.03528409401576,red,1,NaN,786.654331158049,854.650531362416,NaN,NaN,786.654331158049,854.650531362416,1038.06300875679,691.383827134052,960.476699717708,401.827779828472,661.117046071168,386.139005173917,553.688914296288,665.998856501143,0,0,4,0,0,0,0,NaN,horizontal,horizontal,vertical,horizontal,vertical,none
1c,7,100132,3,47,175,18,M,NA,variable,homogeneous,6,absent,1.12317204475403,1,horizontal,horizontal,1,1.04704852898916,green,4,NaN,891.383827134052,361.936991243214,NaN,NaN,708.616172865948,838.063008756786,960.476699717708,798.172220171528,1051.86052685176,560.109211414741,891.383827134052,361.936991243214,639.523300282292,401.827779828472,548.13947314824,639.890788585259,0,0,0,4,0,0,horizontal,horizontal,vertical,horizontal,vertical,vertical
1c,7,100132,3,48,176,18,M,NA,variable,homogeneous,5,present,0.821796894073486,1,horizontal,horizontal,1,0.611764434973399,green,1,5,874.554784704298,843.857712770574,591.116228706307,746.261991269517,874.554784704298,843.857712770574,1054.96116226488,604.450363641507,883.019879386575,358.892763222174,596.34794493794,446.537169096228,591.116228706307,746.261991269517,0,0,4,0,0,0,0,NaN,horizontal,horizontal,horizontal,horizontal,vertical,none
1c,7,100132,3,49,177,18,M,NA,variable,homogeneous,5,present,1.19422101974487,1,vertical,vertical,1,1.01175522406896,red,4,2,632.704947607421,407.549057043193,1048.46436652023,657.362518857686,822.224714400653,854.029648013395,1048.46436652023,657.362518857686,931.334709102064,381.422338320961,632.704947607421,407.549057043193,565.271262369628,699.636437764765,0,0,0,0,0,4,0,NaN,vertical,horizontal,vertical,vertical,vertical,none
1c,7,100132,3,50,178,18,M,NA,variable,homogeneous,3,absent,0.875870943069458,1,vertical,vertical,1,1.07057739893595,red,3,NaN,777.775285599347,345.970351986605,NaN,NaN,591.116228706307,746.261991269517,1031.10848569435,707.767656743878,777.775285599347,345.970351986605,0,0,0,0,0,0,0,0,4,NaN,NaN,NaN,horizontal,horizontal,vertical,none,none,none
1c,7,100132,3,51,179,18,M,NA,variable,homogeneous,6,present,0.93109393119812,1,vertical,vertical,1,0.870582004388173,red,6,1,546.39691668109,626.654758133252,696.282156015671,832.954091698863,696.282156015671,832.954091698863,949.885239334581,806.299333565612,1053.60308331891,573.345241866748,903.717843984329,367.045908301137,650.114760665419,393.700666434388,546.39691668109,626.654758133252,0,0,0,0,0,4,horizontal,horizontal,vertical,horizontal,vertical,vertical
1c,7,100132,3,52,180,18,M,NA,variable,homogeneous,4,present,0.763151884078979,1,horizontal,horizontal,1,0.858817569414775,red,1,2,822.224714400653,854.029648013395,1054.0296480134,577.775285599347,822.224714400653,854.029648013395,1054.0296480134,577.775285599347,777.775285599347,345.970351986605,545.970351986605,622.224714400653,0,0,0,0,4,0,0,0,NaN,NaN,horizontal,vertical,horizontal,vertical,none,none
1c,7,100132,3,53,181,18,M,NA,variable,homogeneous,6,present,0.680335998535156,1,horizontal,horizontal,1,1.09410626888275,red,1,5,878.799333565612,842.519411655264,550.57236181288,546.982518841471,878.799333565612,842.519411655264,1049.42763818712,653.017481158529,970.628304621509,410.498069503264,721.200666434388,357.480588344736,550.57236181288,546.982518841471,629.371695378491,789.501930496736,4,0,0,0,0,0,horizontal,vertical,vertical,horizontal,horizontal,vertical
1c,7,100132,3,54,182,18,M,NA,variable,homogeneous,3,absent,0.685370922088623,1,vertical,vertical,1,0.752937654654185,green,2,NaN,1031.10848569435,492.232343256122,NaN,NaN,777.775285599347,854.029648013395,1031.10848569435,492.232343256122,591.116228706307,453.738008730483,0,0,0,0,0,0,0,4,0,NaN,NaN,NaN,vertical,vertical,horizontal,none,none,none
1c,7,100132,3,55,183,18,M,NA,variable,homogeneous,3,absent,1.09300208091736,1,horizontal,horizontal,1,0.70587991476059,red,2,NaN,870.287525733335,354.878267535729,NaN,NaN,977.137884467044,783.431649086356,870.287525733335,354.878267535729,552.574589799621,661.690083377915,0,0,0,0,0,0,0,4,0,NaN,NaN,NaN,vertical,horizontal,horizontal,none,none,none
1c,7,100132,3,56,184,18,M,NA,variable,homogeneous,3,present,1.14336490631104,1,horizontal,horizontal,1,0.811759829521179,red,3,2,548.874022981887,555.719714694933,963.910840470068,404.658667004661,887.215136548046,839.621618300407,963.910840470068,404.658667004661,548.874022981887,555.719714694933,0,0,0,0,0,0,0,0,4,NaN,NaN,NaN,horizontal,horizontal,horizontal,none,none,none
1c,7,100132,3,57,185,18,M,NA,variable,homogeneous,5,absent,1.42280101776123,1,horizontal,horizontal,1,0.823524264494578,green,4,NaN,782.212099195248,345.621167183745,NaN,NaN,664.870587620533,816.252264519889,963.910840470068,795.341332995339,1036.43188291453,504.475318678942,782.212099195248,345.621167183745,552.574589799621,538.309916622085,0,0,0,0,0,4,0,NaN,horizontal,horizontal,horizontal,horizontal,vertical,none
1c,7,100132,3,58,186,18,M,NA,variable,homogeneous,6,absent,0.809511184692383,1,vertical,vertical,1,1.08234183390935,green,6,NaN,572.793336331966,715.767577433584,NaN,NaN,786.654331158049,854.650531362416,1013.86099482608,738.882953928832,1027.20666366803,484.232422566416,813.345668841951,345.349468637584,586.139005173917,461.117046071168,572.793336331966,715.767577433584,0,0,0,0,0,4,vertical,horizontal,vertical,horizontal,vertical,vertical
1c,7,100132,3,59,187,18,M,NA,variable,homogeneous,4,absent,0.980308055877686,1,vertical,vertical,1,0.729408784707387,green,2,NaN,1000.94274216971,443.006323791957,NaN,NaN,956.993676208043,800.942742169714,1000.94274216971,443.006323791957,643.006323791957,399.057257830286,599.057257830286,756.993676208043,0,0,0,0,0,4,0,0,NaN,NaN,horizontal,vertical,horizontal,vertical,none,none
1c,7,100132,3,60,188,18,M,NA,variable,homogeneous,3,present,0.801951885223389,1,horizontal,horizontal,1,0.694115479787191,green,1,2,676.373546837184,823.028025320546,1054.96116226488,595.549636358493,676.373546837184,823.028025320546,1054.96116226488,595.549636358493,668.665290897936,381.422338320961,0,0,0,0,0,0,4,0,0,NaN,NaN,NaN,horizontal,vertical,horizontal,none,none,none
1c,7,100132,3,61,189,18,M,NA,variable,homogeneous,6,absent,0.730913162231445,1,vertical,vertical,1,1.03528409401576,red,4,NaN,755.719714694933,348.874022981887,NaN,NaN,844.280285305067,851.125977018113,1039.62161830041,687.215136548046,995.341332995339,436.089159529932,755.719714694933,348.874022981887,560.378381699593,512.784863451954,604.658667004661,763.910840470068,0,0,0,4,0,0,vertical,horizontal,horizontal,vertical,horizontal,horizontal
1c,7,100132,3,62,190,18,M,NA,variable,homogeneous,6,absent,0.920222043991089,1,horizontal,horizontal,1,0.717644349733988,green,5,NaN,565.271262369628,500.363562235235,NaN,NaN,831.076682568313,853.099268668537,1034.72873763037,699.636437764765,1003.65205506206,446.537169096228,768.923317431687,346.900731331463,565.271262369628,500.363562235235,596.34794493794,753.462830903772,0,0,0,0,4,0,horizontal,horizontal,horizontal,horizontal,horizontal,horizontal
1c,7,100132,3,63,191,18,M,NA,variable,homogeneous,3,present,0.679738998413086,1,vertical,vertical,1,0.847053134441376,green,2,3,1041.10723677783,516.980120613425,607.549057043193,432.704947607421,751.343706178981,850.314931779154,1041.10723677783,516.980120613425,607.549057043193,432.704947607421,0,0,0,0,0,0,0,4,0,NaN,NaN,NaN,horizontal,vertical,horizontal,none,none,none
1c,7,100132,3,64,192,18,M,NA,variable,homogeneous,3,absent,0.93506383895874,1,horizontal,horizontal,1,0.694115479787191,green,1,NaN,636.089159529932,795.341332995339,NaN,NaN,636.089159529932,795.341332995339,1051.12597701811,644.280285305067,712.784863451954,360.378381699593,0,0,0,0,0,0,4,0,0,NaN,NaN,NaN,horizontal,horizontal,horizontal,none,none,none
1c,7,100132,4,1,193,18,M,NA,variable,homogeneous,4,present,1.09677696228027,1,horizontal,horizontal,1,0.90587530930837,red,1,3,746.982518841471,849.42763818712,853.017481158529,350.57236181288,746.982518841471,849.42763818712,1049.42763818712,653.017481158529,853.017481158529,350.57236181288,550.57236181288,546.982518841471,0,0,0,0,4,0,0,0,NaN,NaN,horizontal,horizontal,horizontal,horizontal,none,none
1c,7,100132,4,2,194,18,M,NA,variable,homogeneous,5,present,0.738728046417236,1,horizontal,horizontal,1,0.788230959574381,red,4,1,742.637481142314,351.535633479765,700.363562235235,834.728737630372,700.363562235235,834.728737630372,992.450942956807,767.295052392579,1018.57766167904,468.665290897936,742.637481142314,351.535633479765,545.970351986605,577.775285599347,0,0,0,0,0,4,0,NaN,horizontal,horizontal,horizontal,horizontal,vertical,none
1c,7,100132,4,3,195,18,M,NA,variable,homogeneous,6,absent,1.03993201255798,1,horizontal,horizontal,1,0.717644349733988,green,2,NaN,1011.40458100154,742.594190385041,NaN,NaN,782.212099195248,854.378832816255,1011.40458100154,742.594190385041,1029.19248180629,488.215357568785,817.787900804752,345.621167183745,588.595418998464,457.40580961496,570.807518193712,711.784642431215,0,4,0,0,0,0,vertical,horizontal,vertical,horizontal,vertical,horizontal
1c,7,100132,4,4,196,18,M,NA,variable,homogeneous,3,absent,0.723643064498901,1,horizontal,horizontal,1,0.741173219680786,green,2,NaN,1046.31108570371,665.998856501143,NaN,NaN,619.68777079743,780.31222920257,1046.31108570371,665.998856501143,734.001143498857,353.688914296288,0,0,0,0,0,0,0,4,0,NaN,NaN,NaN,vertical,horizontal,horizontal,none,none,none
1c,7,100132,4,5,197,18,M,NA,variable,homogeneous,4,present,0.700119972229004,1,vertical,vertical,1,0.894110874334971,green,4,3,545.349468637584,613.345668841951,786.654331158049,345.349468637584,813.345668841951,854.650531362416,1054.65053136242,586.654331158049,786.654331158049,345.349468637584,545.349468637584,613.345668841951,0,0,0,0,0,0,0,4,NaN,NaN,horizontal,horizontal,horizontal,vertical,none,none
1c,7,100132,4,6,198,18,M,NA,variable,homogeneous,6,present,1.13357710838318,1,vertical,vertical,1,0.764702089627584,red,4,3,729.712474266665,354.878267535729,977.137884467044,416.568350913644,870.287525733335,845.121732464271,1047.42541020038,661.690083377915,977.137884467044,416.568350913644,729.712474266665,354.878267535729,552.574589799621,538.309916622085,622.862115532956,783.431649086356,0,0,0,4,0,0,horizontal,vertical,vertical,vertical,vertical,horizontal
1c,7,100132,4,7,199,18,M,NA,variable,homogeneous,4,present,0.920945882797241,1,horizontal,horizontal,1,0.623528869946798,green,4,3,545.155339110131,591.100628340862,808.899371659138,345.155339110131,791.100628340862,854.844660889869,1054.84466088987,608.899371659138,808.899371659138,345.155339110131,545.155339110131,591.100628340862,0,0,0,0,0,0,0,4,NaN,NaN,horizontal,vertical,horizontal,horizontal,none,none
1c,7,100132,4,8,200,18,M,NA,variable,homogeneous,6,present,0.889442920684814,1,horizontal,horizontal,1,0.894110874334971,red,4,3,853.017481158529,350.57236181288,1042.51941165526,521.200666434388,746.982518841471,849.42763818712,989.501930496736,770.628304621509,1042.51941165526,521.200666434388,853.017481158529,350.57236181288,610.498069503264,429.371695378491,557.480588344736,678.799333565612,0,0,0,4,0,0,vertical,vertical,horizontal,horizontal,vertical,vertical
1c,7,100132,4,9,201,18,M,NA,variable,homogeneous,5,present,0.752084970474243,1,horizontal,horizontal,1,0.635293304920197,red,1,3,734.001143498857,846.311085703712,998.172220171528,439.523300282291,734.001143498857,846.311085703712,1013.86099482608,738.882953928832,998.172220171528,439.523300282291,708.616172865948,361.936991243214,545.349468637584,613.345668841951,0,0,4,0,0,0,0,NaN,horizontal,vertical,vertical,horizontal,vertical,none
1c,7,100132,4,10,202,18,M,NA,variable,homogeneous,6,absent,0.755760908126831,1,vertical,vertical,1,1.02351965904236,red,5,NaN,599.057257830286,443.006323791957,NaN,NaN,764.510859255183,852.518357529101,1000.94274216971,756.993676208043,1036.43188291453,504.475318678942,835.489140744817,347.4816424709,599.057257830286,443.006323791957,563.568117085469,695.524681321058,0,0,0,0,4,0,horizontal,vertical,horizontal,vertical,vertical,horizontal
1c,7,100132,4,11,203,18,M,NA,variable,homogeneous,4,present,0.892238855361938,1,horizontal,horizontal,1,0.858817569414775,red,2,4,1047.42541020038,661.690083377915,552.574589799621,538.309916622085,738.309916622085,847.425410200379,1047.42541020038,661.690083377915,861.690083377915,352.574589799621,552.574589799621,538.309916622085,0,0,0,0,0,4,0,0,NaN,NaN,vertical,horizontal,horizontal,horizontal,none,none
1c,7,100132,4,12,204,18,M,NA,variable,homogeneous,3,present,1.06496405601501,1,horizontal,horizontal,1,0.741173219680786,red,2,1,1031.10848569435,492.232343256122,777.775285599347,854.029648013395,777.775285599347,854.029648013395,1031.10848569435,492.232343256122,591.116228706307,453.738008730483,0,0,0,0,0,0,0,4,0,NaN,NaN,NaN,horizontal,horizontal,horizontal,none,none,none
1c,7,100132,4,13,205,18,M,NA,variable,homogeneous,5,present,0.643342018127441,1,vertical,vertical,1,0.647057739893595,green,4,2,579.163522034968,472.5,1053.60308331891,573.345241866748,903.717843984329,832.954091698863,1053.60308331891,573.345241866748,853.017481158529,350.57236181288,579.163522034968,472.5,610.498069503264,770.628304621509,0,0,0,0,0,4,0,NaN,vertical,vertical,horizontal,vertical,horizontal,none
1c,7,100132,4,14,206,18,M,NA,variable,homogeneous,3,present,0.76866602897644,1,horizontal,horizontal,1,0.811759829521179,red,2,1,1051.86052685176,639.890788585259,639.523300282292,798.172220171528,639.523300282292,798.172220171528,1051.86052685176,639.890788585259,708.616172865948,361.936991243214,0,0,0,0,0,0,0,4,0,NaN,NaN,NaN,vertical,horizontal,vertical,none,none,none
1c,7,100132,4,15,207,18,M,NA,variable,homogeneous,4,present,0.683029174804688,1,vertical,vertical,1,0.941168614228566,red,2,3,1008.88377129369,453.738008730483,653.738008730483,391.116228706307,946.261991269517,808.883771293693,1008.88377129369,453.738008730483,653.738008730483,391.116228706307,591.116228706307,746.261991269517,0,0,0,0,0,4,0,0,NaN,NaN,horizontal,vertical,vertical,horizontal,none,none
1c,7,100132,4,16,208,18,M,NA,variable,homogeneous,5,absent,0.636314868927002,1,vertical,vertical,1,0.776466524600983,red,5,NaN,601.827779828472,760.476699717708,NaN,NaN,891.383827134052,838.063008756786,1054.65053136242,586.654331158049,865.998856501143,353.688914296288,586.139005173917,461.117046071168,601.827779828472,760.476699717708,0,0,0,0,0,0,4,NaN,vertical,vertical,vertical,vertical,vertical,none
1c,7,100132,4,17,209,18,M,NA,variable,homogeneous,6,present,0.611671924591064,1,vertical,vertical,1,0.70587991476059,red,3,5,1051.12597701811,555.719714694933,636.089159529932,404.658667004661,712.784863451954,839.621618300407,963.910840470068,795.341332995339,1051.12597701811,555.719714694933,887.215136548046,360.378381699593,636.089159529932,404.658667004661,548.874022981887,644.280285305067,0,0,4,0,0,0,vertical,vertical,vertical,vertical,horizontal,horizontal
1c,7,100132,4,18,210,18,M,NA,variable,homogeneous,5,present,0.985407114028931,1,vertical,vertical,1,0.858817569414775,red,4,1,680.284751489598,374.848363820974,764.510859255183,852.518357529101,764.510859255183,852.518357529101,1029.19248180629,711.784642431215,977.137884467044,416.568350913644,680.284751489598,374.848363820974,548.874022981887,644.280285305067,0,0,0,0,0,4,0,NaN,horizontal,horizontal,vertical,vertical,vertical,none
1c,7,100132,4,19,211,18,M,NA,variable,homogeneous,5,present,1.36356902122498,1,vertical,vertical,1,0.729408784707387,green,1,3,657.405809614959,811.404581001536,1039.62161830041,512.784863451954,657.405809614959,811.404581001536,956.993676208043,800.942742169714,1039.62161830041,512.784863451954,791.100628340862,345.155339110131,554.878267535729,529.712474266665,0,0,4,0,0,0,0,NaN,vertical,vertical,horizontal,vertical,vertical,none
1c,7,100132,4,20,212,18,M,NA,variable,homogeneous,6,absent,0.729789018630981,1,horizontal,horizontal,1,0.729408784707387,red,6,NaN,622.862115532956,783.431649086356,NaN,NaN,870.287525733335,845.121732464271,1047.42541020038,661.690083377915,977.137884467044,416.568350913644,729.712474266665,354.878267535729,552.574589799621,538.309916622085,622.862115532956,783.431649086356,0,0,0,0,0,4,horizontal,horizontal,vertical,vertical,vertical,horizontal
1c,7,100132,4,21,213,18,M,NA,variable,homogeneous,4,absent,0.812028884887695,1,vertical,vertical,1,0.776466524600983,red,4,NaN,546.900731331463,568.923317431687,NaN,NaN,768.923317431687,853.099268668537,1053.09926866854,631.076682568313,831.076682568313,346.900731331463,546.900731331463,568.923317431687,0,0,0,0,0,0,0,4,NaN,NaN,horizontal,vertical,horizontal,vertical,none,none
1c,7,100132,4,22,214,18,M,NA,variable,homogeneous,6,present,1.02815318107605,0,horizontal,vertical,1,0.976461919148763,green,6,4,646.537169096228,803.65205506206,700.363562235235,365.271262369628,899.636437764765,834.728737630372,1053.09926866854,631.076682568313,953.462830903772,396.34794493794,700.363562235235,365.271262369628,546.900731331463,568.923317431687,646.537169096228,803.65205506206,0,0,0,0,0,4,horizontal,horizontal,horizontal,horizontal,horizontal,horizontal
1c,7,100132,4,23,215,18,M,NA,variable,homogeneous,4,absent,1.14269304275513,0,horizontal,vertical,1,0.882346439361572,red,2,NaN,1016.25226451989,464.870587620533,NaN,NaN,935.129412379467,816.252264519889,1016.25226451989,464.870587620533,664.870587620533,383.747735480111,583.747735480111,735.129412379467,0,0,0,0,0,4,0,0,NaN,NaN,vertical,horizontal,horizontal,horizontal,none,none
1c,7,100132,4,24,216,18,M,NA,variable,homogeneous,3,present,0.803292036056519,1,vertical,vertical,1,0.882346439361572,green,1,2,588.595418998464,742.594190385041,1029.19248180629,711.784642431215,588.595418998464,742.594190385041,1029.19248180629,711.784642431215,782.212099195248,345.621167183745,0,0,0,0,0,0,4,0,0,NaN,NaN,NaN,vertical,horizontal,horizontal,none,none,none
1c,7,100132,4,25,217,18,M,NA,variable,homogeneous,5,present,1.12911891937256,1,vertical,vertical,1,1.07057739893595,red,1,4,700.363562235235,834.728737630372,742.637481142314,351.535633479765,700.363562235235,834.728737630372,992.450942956807,767.295052392579,1018.57766167904,468.665290897936,742.637481142314,351.535633479765,545.970351986605,577.775285599347,0,0,4,0,0,0,0,NaN,vertical,horizontal,vertical,vertical,vertical,none
1c,7,100132,4,26,218,18,M,NA,variable,homogeneous,5,absent,0.725663900375366,1,horizontal,horizontal,1,0.894110874334971,green,3,NaN,1018.57766167904,468.665290897936,NaN,NaN,700.363562235235,834.728737630372,992.450942956807,767.295052392579,1018.57766167904,468.665290897936,742.637481142314,351.535633479765,545.970351986605,577.775285599347,0,0,0,0,4,0,0,NaN,vertical,horizontal,horizontal,horizontal,vertical,none
1c,7,100132,4,27,219,18,M,NA,variable,homogeneous,5,absent,0.759115934371948,1,horizontal,horizontal,1,0.741173219680786,green,1,NaN,938.882953928832,813.860994826083,NaN,NaN,938.882953928832,813.860994826083,1046.31108570371,534.001143498857,813.345668841951,345.349468637584,561.936991243214,508.616172865948,639.523300282292,798.172220171528,0,0,4,0,0,0,0,NaN,horizontal,horizontal,horizontal,vertical,vertical,none
1c,7,100132,4,28,220,18,M,NA,variable,homogeneous,3,present,1.14690613746643,1,vertical,vertical,1,1.02351965904236,green,2,3,883.019879386575,358.892763222174,549.685068220846,648.656293821019,967.295052392579,792.450942956807,883.019879386575,358.892763222174,549.685068220846,648.656293821019,0,0,0,0,0,0,0,4,0,NaN,NaN,NaN,vertical,vertical,vertical,none,none,none
1c,7,100132,4,29,221,18,M,NA,variable,homogeneous,5,absent,0.760146141052246,1,vertical,vertical,1,0.70587991476059,red,2,NaN,1039.62161830041,687.215136548046,NaN,NaN,791.100628340862,854.844660889869,1039.62161830041,687.215136548046,956.993676208043,399.057257830286,657.405809614959,388.595418998464,554.878267535729,670.287525733335,0,0,0,4,0,0,0,NaN,vertical,vertical,horizontal,vertical,horizontal,none
1c,7,100132,4,30,222,18,M,NA,variable,homogeneous,4,absent,0.684382915496826,1,horizontal,horizontal,1,0.847053134441376,green,2,NaN,1039.62161830041,512.784863451954,NaN,NaN,887.215136548046,839.621618300407,1039.62161830041,512.784863451954,712.784863451954,360.378381699593,560.378381699593,687.215136548046,0,0,0,0,0,4,0,0,NaN,NaN,horizontal,horizontal,horizontal,vertical,none,none
1c,7,100132,4,31,223,18,M,NA,variable,homogeneous,3,present,0.875695943832397,1,horizontal,horizontal,1,1.08234183390935,green,3,1,547.481642470899,635.489140744817,956.993676208043,800.942742169714,956.993676208043,800.942742169714,895.524681321058,363.568117085469,547.481642470899,635.489140744817,0,0,0,0,0,0,0,0,4,NaN,NaN,NaN,vertical,vertical,horizontal,none,none,none
1c,7,100132,4,32,224,18,M,NA,variable,homogeneous,4,present,0.856190919876099,0,horizontal,vertical,1,0.929404179255168,green,3,1,668.665290897936,381.422338320961,931.334709102064,818.577661679039,931.334709102064,818.577661679039,1018.57766167904,468.665290897936,668.665290897936,381.422338320961,581.422338320961,731.334709102064,0,0,0,0,0,0,4,0,NaN,NaN,vertical,vertical,horizontal,vertical,none,none
1c,7,100132,4,33,225,18,M,NA,variable,homogeneous,6,absent,0.816695928573608,1,horizontal,horizontal,1,0.764702089627584,red,4,NaN,839.890788585259,348.13947314824,NaN,NaN,760.109211414741,851.86052685176,998.172220171528,760.476699717708,1038.06300875679,508.616172865948,839.890788585259,348.13947314824,601.827779828472,439.523300282291,561.936991243214,691.383827134052,0,0,0,4,0,0,vertical,vertical,horizontal,horizontal,vertical,vertical
1c,7,100132,4,34,226,18,M,NA,variable,homogeneous,6,present,0.866131067276001,1,vertical,vertical,1,0.647057739893595,green,2,4,1011.40458100154,742.594190385041,817.787900804752,345.621167183745,782.212099195248,854.378832816255,1011.40458100154,742.594190385041,1029.19248180629,488.215357568785,817.787900804752,345.621167183745,588.595418998464,457.40580961496,570.807518193712,711.784642431215,0,4,0,0,0,0,horizontal,vertical,horizontal,vertical,horizontal,horizontal
1c,7,100132,4,35,227,18,M,NA,variable,homogeneous,5,absent,0.956202983856201,1,vertical,vertical,1,0.623528869946798,green,5,NaN,551.535633479765,542.637481142314,NaN,NaN,668.665290897936,818.577661679039,967.295052392579,792.450942956807,1034.72873763037,500.363562235235,777.775285599347,345.970351986605,551.535633479765,542.637481142314,0,0,0,0,0,0,4,NaN,vertical,horizontal,vertical,vertical,vertical,none
1c,7,100132,4,36,228,18,M,NA,variable,homogeneous,3,present,0.963073968887329,1,vertical,vertical,1,1.01175522406896,red,1,2,891.383827134052,838.063008756786,960.476699717708,401.827779828472,891.383827134052,838.063008756786,960.476699717708,401.827779828472,548.13947314824,560.109211414741,0,0,0,0,0,0,4,0,0,NaN,NaN,NaN,vertical,horizontal,horizontal,none,none,none
1c,7,100132,4,37,229,18,M,NA,variable,homogeneous,4,present,0.809379100799561,1,vertical,vertical,1,0.90587530930837,green,4,3,558.892763222174,683.019879386575,716.980120613425,358.892763222174,883.019879386575,841.107236777826,1041.10723677783,516.980120613425,716.980120613425,358.892763222174,558.892763222174,683.019879386575,0,0,0,0,0,0,0,4,NaN,NaN,vertical,horizontal,horizontal,vertical,none,none
1c,7,100132,4,38,230,18,M,NA,variable,homogeneous,5,absent,0.74248194694519,1,horizontal,horizontal,1,0.647057739893595,red,4,NaN,567.045908301137,496.282156015671,NaN,NaN,927.5,820.836477965032,1049.42763818712,546.982518841471,826.654758133252,346.39691668109,567.045908301137,496.282156015671,629.371695378491,789.501930496736,0,0,0,0,0,4,0,NaN,horizontal,vertical,vertical,horizontal,horizontal,none
1c,7,100132,4,39,231,18,M,NA,variable,homogeneous,5,absent,0.873386859893799,1,horizontal,horizontal,1,0.988226354122162,red,1,NaN,826.654758133252,853.60308331891,NaN,NaN,826.654758133252,853.60308331891,1049.42763818712,653.017481158529,927.5,379.163522034968,629.371695378491,410.498069503264,567.045908301137,703.717843984329,0,0,4,0,0,0,0,NaN,horizontal,vertical,horizontal,horizontal,horizontal,none
1c,7,100132,4,40,232,18,M,NA,variable,homogeneous,6,absent,0.688003063201904,1,vertical,vertical,1,0.647057739893595,red,4,NaN,704.475318678942,363.568117085469,NaN,NaN,895.524681321058,836.431882914531,1052.5183575291,635.489140744817,956.993676208043,399.057257830286,704.475318678942,363.568117085469,547.481642470899,564.510859255183,643.006323791957,800.942742169714,0,0,0,4,0,0,horizontal,vertical,vertical,vertical,vertical,vertical
1c,7,100132,4,41,233,18,M,NA,variable,homogeneous,4,absent,1.45073509216309,1,vertical,vertical,1,0.847053134441376,red,2,NaN,1048.46436652023,542.637481142314,NaN,NaN,857.362518857686,848.464366520235,1048.46436652023,542.637481142314,742.637481142314,351.535633479765,551.535633479765,657.362518857686,0,0,0,0,0,4,0,0,NaN,NaN,vertical,vertical,vertical,horizontal,none,none
1c,7,100132,4,42,234,18,M,NA,variable,homogeneous,6,present,0.869704008102417,1,horizontal,horizontal,1,0.882346439361572,green,1,3,808.899371659138,854.844660889869,1016.25226451989,464.870587620533,808.899371659138,854.844660889869,1025.15163617903,719.715248510402,1016.25226451989,464.870587620533,791.100628340862,345.155339110131,574.848363820974,480.284751489598,583.747735480111,735.129412379467,4,0,0,0,0,0,horizontal,vertical,vertical,vertical,horizontal,horizontal
1c,7,100132,4,43,235,18,M,NA,variable,homogeneous,3,absent,1.19113898277283,1,vertical,vertical,1,0.988226354122162,green,1,NaN,903.717843984329,832.954091698863,NaN,NaN,903.717843984329,832.954091698863,949.885239334581,393.700666434388,546.39691668109,573.345241866748,0,0,0,0,0,0,4,0,0,NaN,NaN,NaN,vertical,vertical,vertical,none,none,none
1c,7,100132,4,44,236,18,M,NA,variable,homogeneous,3,present,1.18826985359192,1,horizontal,horizontal,1,0.658822174866994,green,3,1,561.936991243214,508.616172865948,839.890788585259,851.86052685176,839.890788585259,851.86052685176,998.172220171528,439.523300282291,561.936991243214,508.616172865948,0,0,0,0,0,0,0,0,4,NaN,NaN,NaN,horizontal,horizontal,horizontal,none,none,none
1c,7,100132,4,45,237,18,M,NA,variable,homogeneous,4,absent,0.960107088088989,1,vertical,vertical,1,0.788230959574381,green,3,NaN,874.554784704298,356.142287229426,NaN,NaN,725.445215295702,843.857712770574,1043.85771277057,674.554784704298,874.554784704298,356.142287229426,556.142287229426,525.445215295702,0,0,0,0,0,0,4,0,NaN,NaN,vertical,horizontal,vertical,vertical,none,none
1c,7,100132,4,46,238,18,M,NA,variable,homogeneous,6,present,1.25099992752075,1,vertical,vertical,1,0.776466524600983,green,1,4,826.654758133252,853.60308331891,773.345241866748,346.39691668109,826.654758133252,853.60308331891,1032.95409169886,703.717843984329,1006.29933356561,450.114760665419,773.345241866748,346.39691668109,567.045908301137,496.282156015671,593.700666434388,749.885239334581,4,0,0,0,0,0,vertical,vertical,horizontal,vertical,vertical,horizontal
1c,7,100132,4,47,239,18,M,NA,variable,homogeneous,5,present,0.712290048599243,1,horizontal,horizontal,1,0.79999539454778,green,4,3,650.114760665419,393.700666434388,949.885239334581,393.700666434388,800,855,1042.51941165526,678.799333565612,949.885239334581,393.700666434388,650.114760665419,393.700666434388,557.480588344736,678.799333565612,0,0,0,0,0,4,0,NaN,horizontal,vertical,horizontal,horizontal,vertical,none
1c,7,100132,4,48,240,18,M,NA,variable,homogeneous,4,absent,1.09198689460754,1,horizontal,horizontal,1,0.870582004388173,red,1,NaN,661.117046071168,813.860994826083,NaN,NaN,661.117046071168,813.860994826083,1013.86099482608,738.882953928832,938.882953928832,386.139005173917,586.139005173917,461.117046071168,0,0,0,0,4,0,0,0,NaN,NaN,horizontal,horizontal,horizontal,vertical,none,none
1c,7,100132,4,49,241,18,M,NA,variable,homogeneous,6,present,1.25719809532166,1,horizontal,horizontal,1,0.964697484175364,red,5,2,610.498069503264,429.371695378491,989.501930496736,770.628304621509,746.982518841471,849.42763818712,989.501930496736,770.628304621509,1042.51941165526,521.200666434388,853.017481158529,350.57236181288,610.498069503264,429.371695378491,557.480588344736,678.799333565612,0,0,0,0,4,0,vertical,horizontal,horizontal,vertical,horizontal,vertical
1c,7,100132,4,50,242,18,M,NA,variable,homogeneous,3,absent,0.606410980224609,1,horizontal,horizontal,1,0.79999539454778,red,3,NaN,725.445215295702,356.142287229426,NaN,NaN,626.090418184063,786.495193912888,1048.46436652023,657.362518857686,725.445215295702,356.142287229426,0,0,0,0,0,0,0,0,4,NaN,NaN,NaN,vertical,horizontal,horizontal,none,none,none
1c,7,100132,4,51,243,18,M,NA,variable,homogeneous,4,present,1.59512901306152,1,vertical,vertical,1,1.02351965904236,red,1,4,768.923317431687,853.099268668537,546.900731331463,568.923317431687,768.923317431687,853.099268668537,1053.09926866854,631.076682568313,831.076682568313,346.900731331463,546.900731331463,568.923317431687,0,0,0,0,4,0,0,0,NaN,NaN,vertical,vertical,vertical,vertical,none,none
1c,7,100132,4,52,244,18,M,NA,variable,homogeneous,6,absent,0.884037971496582,1,horizontal,horizontal,1,0.647057739893595,green,3,NaN,1031.10848569435,492.232343256122,NaN,NaN,777.775285599347,854.029648013395,1008.88377129369,746.261991269517,1031.10848569435,492.232343256122,822.224714400653,345.970351986605,591.116228706307,453.738008730483,568.891514305654,707.767656743878,0,0,4,0,0,0,vertical,horizontal,horizontal,vertical,horizontal,vertical
