experiment,subject,uniqueID,block,trial,trial_cumulative,age,gender,color_cond_blocking,color_history,shape_type,set_size,distractor,rt,acc,target_orient,response_key,response_made,iti,target_color,target_item,distractor_item,target_X,target_Y,distractor_X,distractor_Y,item1_X,item1_Y,item2_X,item2_Y,item3_X,item3_Y,item4_X,item4_Y,item5_X,item5_Y,item6_X,item6_Y,item1_shape,item2_shape,item3_shape,item4_shape,item5_shape,item6_shape,item1_line,item2_line,item3_line,item4_line,item5_line,item6_line
1c,8,100126,1,1,1,22,O,NA,variable,homogeneous,4,present,NaN,0,vertical,none,0,0.882348200959979,green,4,2,545.621167183745,582.212099195248,1054.37883281626,617.787900804752,782.212099195248,854.378832816255,1054.37883281626,617.787900804752,817.787900804752,345.621167183745,545.621167183745,582.212099195248,0,0,0,0,0,0,0,4,NaN,NaN,horizontal,horizontal,horizontal,vertical,none,none
1c,8,100126,1,2,2,22,O,NA,variable,homogeneous,6,absent,1.0770571231842,1,horizontal,horizontal,1,0.776467625599987,red,3,NaN,1016.25226451989,464.870587620533,NaN,NaN,808.899371659138,854.844660889869,1025.15163617903,719.715248510402,1016.25226451989,464.870587620533,791.100628340862,345.155339110131,574.848363820974,480.284751489598,583.747735480111,735.129412379467,0,0,4,0,0,0,horizontal,vertical,horizontal,vertical,horizontal,horizontal
1c,8,100126,1,3,3,22,O,NA,variable,homogeneous,6,present,0.851188182830811,1,vertical,vertical,1,0.64705803349333,red,2,5,1049.42763818712,653.017481158529,550.57236181288,546.982518841471,878.799333565612,842.519411655264,1049.42763818712,653.017481158529,970.628304621509,410.498069503264,721.200666434388,357.480588344736,550.57236181288,546.982518841471,629.371695378491,789.501930496736,0,4,0,0,0,0,vertical,vertical,vertical,vertical,vertical,vertical
1c,8,100126,1,4,4,22,O,NA,variable,homogeneous,3,present,0.597459077835083,1,vertical,vertical,1,0.882348200959979,red,3,1,567.045908301137,703.717843984329,1006.29933356561,749.885239334581,1006.29933356561,749.885239334581,826.654758133252,346.39691668109,567.045908301137,703.717843984329,0,0,0,0,0,0,0,0,4,NaN,NaN,NaN,horizontal,horizontal,vertical,none,none,none
1c,8,100126,1,5,5,22,O,NA,variable,homogeneous,4,present,0.607122182846069,1,vertical,vertical,1,1.0705803349333,red,2,3,1011.40458100154,742.594190385041,942.594190385041,388.595418998464,657.405809614959,811.404581001536,1011.40458100154,742.594190385041,942.594190385041,388.595418998464,588.595418998464,457.40580961496,0,0,0,0,0,4,0,0,NaN,NaN,horizontal,vertical,vertical,vertical,none,none
1c,8,100126,1,6,6,22,O,NA,variable,homogeneous,5,present,0.784670829772949,1,horizontal,horizontal,1,0.658822541866662,red,4,2,586.139005173917,461.117046071168,1054.65053136242,586.654331158049,891.383827134052,838.063008756786,1054.65053136242,586.654331158049,865.998856501143,353.688914296288,586.139005173917,461.117046071168,601.827779828472,760.476699717708,0,0,0,0,0,4,0,NaN,horizontal,horizontal,horizontal,horizontal,horizontal,none
1c,8,100126,1,7,7,22,O,NA,variable,homogeneous,3,absent,0.580355882644653,1,vertical,vertical,1,0.799996642346652,red,1,NaN,839.890788585259,851.86052685176,NaN,NaN,839.890788585259,851.86052685176,998.172220171528,439.523300282291,561.936991243214,508.616172865948,0,0,0,0,0,0,4,0,0,NaN,NaN,NaN,vertical,horizontal,horizontal,none,none,none
1c,8,100126,1,8,8,22,O,NA,variable,homogeneous,4,present,0.82788610458374,1,horizontal,horizontal,1,1.01175779306664,red,2,1,1003.65205506206,446.537169096228,953.462830903772,803.65205506206,953.462830903772,803.65205506206,1003.65205506206,446.537169096228,646.537169096228,396.34794493794,596.34794493794,753.462830903772,0,0,0,0,0,4,0,0,NaN,NaN,vertical,horizontal,vertical,vertical,none,none
1c,8,100126,1,9,9,22,O,NA,variable,homogeneous,3,absent,0.578503131866455,1,horizontal,horizontal,1,1.0705803349333,green,1,NaN,650.114760665419,806.299333565612,NaN,NaN,650.114760665419,806.299333565612,1053.60308331891,626.654758133252,696.282156015671,367.045908301137,0,0,0,0,0,0,4,0,0,NaN,NaN,NaN,horizontal,vertical,vertical,none,none,none
1c,8,100126,1,10,10,22,O,NA,variable,homogeneous,6,absent,0.619395971298218,0,vertical,horizontal,1,1.05881582655997,green,5,NaN,545.155339110131,591.100628340862,NaN,NaN,919.715248510402,825.151636179026,1054.84466088987,608.899371659138,935.129412379467,383.747735480111,680.284751489598,374.848363820974,545.155339110131,591.100628340862,664.870587620533,816.252264519889,0,0,0,0,4,0,vertical,vertical,vertical,vertical,vertical,vertical
1c,8,100126,1,11,11,22,O,NA,variable,homogeneous,4,absent,0.979856967926025,1,vertical,vertical,1,0.799996642346652,red,3,NaN,676.373546837184,376.971974679454,NaN,NaN,923.626453162816,823.028025320546,1023.02802532055,476.373546837184,676.373546837184,376.971974679454,576.971974679454,723.626453162816,0,0,0,0,0,0,4,0,NaN,NaN,vertical,horizontal,vertical,vertical,none,none
1c,8,100126,1,12,12,22,O,NA,variable,homogeneous,5,present,0.695892095565796,1,vertical,vertical,1,0.799996642346652,green,2,3,1054.65053136242,613.345668841951,891.383827134052,361.936991243214,865.998856501143,846.311085703712,1054.65053136242,613.345668841951,891.383827134052,361.936991243214,601.827779828472,439.523300282291,586.139005173917,738.882953928832,0,0,0,4,0,0,0,NaN,vertical,vertical,horizontal,vertical,vertical,none
1c,8,100126,1,13,13,22,O,NA,variable,homogeneous,5,present,0.651607036590576,1,vertical,vertical,1,0.882348200959979,green,2,1,1055,600,878.799333565612,842.519411655264,878.799333565612,842.519411655264,1055,600,878.799333565612,357.480588344736,593.700666434388,450.114760665419,593.700666434388,749.885239334581,0,0,0,4,0,0,0,NaN,vertical,vertical,vertical,horizontal,horizontal,none
1c,8,100126,1,14,14,22,O,NA,variable,homogeneous,5,absent,0.767725944519043,1,vertical,vertical,1,0.952935251199974,red,1,NaN,899.636437764765,834.728737630372,NaN,NaN,899.636437764765,834.728737630372,1054.0296480134,577.775285599347,857.362518857686,351.535633479765,581.422338320961,468.665290897936,607.549057043193,767.295052392579,0,0,4,0,0,0,0,NaN,vertical,horizontal,horizontal,horizontal,vertical,none
1c,8,100126,1,15,15,22,O,NA,variable,homogeneous,3,absent,0.561413049697876,1,vertical,vertical,1,0.69411606698666,red,2,NaN,853.017481158529,350.57236181288,NaN,NaN,989.501930496736,770.628304621509,853.017481158529,350.57236181288,557.480588344736,678.799333565612,0,0,0,0,0,0,0,4,0,NaN,NaN,NaN,vertical,vertical,horizontal,none,none,none
1c,8,100126,1,16,16,22,O,NA,variable,homogeneous,5,absent,0.532500028610229,1,horizontal,horizontal,1,0.6,red,2,NaN,1025.15163617903,719.715248510402,NaN,NaN,755.719714694933,851.125977018113,1025.15163617903,719.715248510402,983.431649086356,422.862115532956,688.215357568785,370.807518193712,547.481642470899,635.489140744817,0,0,0,4,0,0,0,NaN,horizontal,horizontal,horizontal,horizontal,vertical,none
1c,8,100126,1,17,17,22,O,NA,variable,homogeneous,5,absent,0.606548070907593,1,horizontal,horizontal,1,0.952935251199974,green,4,NaN,596.34794493794,446.537169096228,NaN,NaN,874.554784704298,843.857712770574,1054.96116226488,604.450363641507,883.019879386575,358.892763222174,596.34794493794,446.537169096228,591.116228706307,746.261991269517,0,0,0,0,0,4,0,NaN,vertical,vertical,horizontal,horizontal,horizontal,none
1c,8,100126,1,18,18,22,O,NA,variable,homogeneous,4,absent,0.520355939865112,1,vertical,vertical,1,1.08234484330663,red,3,NaN,963.910840470068,404.658667004661,NaN,NaN,636.089159529932,795.341332995339,995.341332995339,763.910840470068,963.910840470068,404.658667004661,604.658667004661,436.089159529932,0,0,0,0,0,0,4,0,NaN,NaN,horizontal,horizontal,vertical,vertical,none,none
1c,8,100126,1,19,19,22,O,NA,variable,homogeneous,6,absent,1.08694696426392,1,horizontal,horizontal,1,0.799996642346652,green,4,NaN,708.616172865948,361.936991243214,NaN,NaN,891.383827134052,838.063008756786,1051.86052685176,639.890788585259,960.476699717708,401.827779828472,708.616172865948,361.936991243214,548.13947314824,560.109211414741,639.523300282292,798.172220171528,0,0,0,4,0,0,horizontal,horizontal,vertical,horizontal,vertical,horizontal
1c,8,100126,1,20,20,22,O,NA,variable,homogeneous,6,present,0.808816909790039,1,horizontal,horizontal,1,0.999993284693304,green,6,3,636.089159529932,795.341332995339,963.910840470068,404.658667004661,887.215136548046,839.621618300407,1051.12597701811,644.280285305067,963.910840470068,404.658667004661,712.784863451954,360.378381699593,548.874022981887,555.719714694933,636.089159529932,795.341332995339,0,0,0,0,0,4,horizontal,horizontal,vertical,horizontal,vertical,horizontal
1c,8,100126,1,21,21,22,O,NA,variable,homogeneous,4,absent,0.536818981170654,1,vertical,vertical,1,0.988228776319972,green,2,NaN,1053.60308331891,626.654758133252,NaN,NaN,773.345241866748,853.60308331891,1053.60308331891,626.654758133252,826.654758133252,346.39691668109,546.39691668109,573.345241866748,0,0,0,0,0,4,0,0,NaN,NaN,vertical,vertical,vertical,vertical,none,none
1c,8,100126,1,22,22,22,O,NA,variable,homogeneous,5,present,0.546520948410034,1,horizontal,horizontal,1,0.929406234453309,green,1,5,887.215136548046,839.621618300407,599.057257830286,756.993676208043,887.215136548046,839.621618300407,1054.84466088987,591.100628340862,870.287525733335,354.878267535729,588.595418998464,457.40580961496,599.057257830286,756.993676208043,0,0,4,0,0,0,0,NaN,horizontal,horizontal,vertical,vertical,vertical,none
1c,8,100126,1,23,23,22,O,NA,variable,homogeneous,5,present,0.427263975143433,1,vertical,vertical,1,1.09410935167996,red,1,4,800,855,650.114760665419,393.700666434388,800,855,1042.51941165526,678.799333565612,949.885239334581,393.700666434388,650.114760665419,393.700666434388,557.480588344736,678.799333565612,0,0,4,0,0,0,0,NaN,vertical,horizontal,vertical,vertical,horizontal,none
1c,8,100126,1,24,24,22,O,NA,variable,homogeneous,6,present,0.521952867507935,1,horizontal,horizontal,1,0.894112709333312,red,1,3,755.719714694933,851.125977018113,1039.62161830041,512.784863451954,755.719714694933,851.125977018113,995.341332995339,763.910840470068,1039.62161830041,512.784863451954,844.280285305067,348.874022981887,604.658667004661,436.089159529932,560.378381699593,687.215136548046,4,0,0,0,0,0,horizontal,horizontal,vertical,vertical,horizontal,vertical
1c,8,100126,1,25,25,22,O,NA,variable,homogeneous,4,absent,0.700486898422241,1,horizontal,horizontal,1,0.988228776319972,red,2,NaN,1049.42763818712,653.017481158529,NaN,NaN,746.982518841471,849.42763818712,1049.42763818712,653.017481158529,853.017481158529,350.57236181288,550.57236181288,546.982518841471,0,0,0,0,0,4,0,0,NaN,NaN,vertical,horizontal,vertical,horizontal,none,none
1c,8,100126,1,26,26,22,O,NA,variable,homogeneous,4,present,0.630117893218994,1,vertical,vertical,1,0.988228776319972,green,3,4,804.450363641507,345.03883773512,545.03883773512,595.549636358493,795.549636358493,854.96116226488,1054.96116226488,604.450363641507,804.450363641507,345.03883773512,545.03883773512,595.549636358493,0,0,0,0,0,0,4,0,NaN,NaN,horizontal,horizontal,vertical,horizontal,none,none
1c,8,100126,1,27,27,22,O,NA,variable,homogeneous,3,present,0.464456796646118,0,vertical,horizontal,1,1.08234484330663,green,3,2,610.498069503264,429.371695378491,1042.51941165526,521.200666434388,746.982518841471,849.42763818712,1042.51941165526,521.200666434388,610.498069503264,429.371695378491,0,0,0,0,0,0,0,0,4,NaN,NaN,NaN,horizontal,horizontal,vertical,none,none,none
1c,8,100126,1,28,28,22,O,NA,variable,homogeneous,5,present,0.704332113265991,1,vertical,vertical,1,0.705880575359992,red,5,2,545.349468637584,613.345668841951,1013.86099482608,738.882953928832,734.001143498857,846.311085703712,1013.86099482608,738.882953928832,998.172220171528,439.523300282291,708.616172865948,361.936991243214,545.349468637584,613.345668841951,0,0,0,0,0,0,4,NaN,horizontal,horizontal,horizontal,vertical,vertical,none
1c,8,100126,1,29,29,22,O,NA,variable,homogeneous,6,present,0.421977043151855,1,vertical,vertical,1,0.764703117226655,red,6,5,556.142287229426,674.554784704298,613.504806087112,426.090418184063,742.637481142314,848.464366520235,986.495193912888,773.909581815937,1043.85771277057,525.445215295702,857.362518857686,351.535633479765,613.504806087112,426.090418184063,556.142287229426,674.554784704298,0,0,0,0,0,4,horizontal,vertical,vertical,horizontal,horizontal,vertical
1c,8,100126,1,30,30,22,O,NA,variable,homogeneous,4,present,0.765254020690918,1,horizontal,horizontal,1,0.952935251199974,red,2,4,1006.29933356561,749.885239334581,593.700666434388,450.114760665419,650.114760665419,806.299333565612,1006.29933356561,749.885239334581,949.885239334581,393.700666434388,593.700666434388,450.114760665419,0,0,0,0,0,4,0,0,NaN,NaN,vertical,horizontal,horizontal,horizontal,none,none
1c,8,100126,1,31,31,22,O,NA,variable,homogeneous,6,absent,0.465593099594116,1,vertical,vertical,1,0.83529016746665,green,5,NaN,593.700666434388,450.114760665419,NaN,NaN,773.345241866748,853.60308331891,1006.29933356561,749.885239334581,1032.95409169886,496.282156015671,826.654758133252,346.39691668109,593.700666434388,450.114760665419,567.045908301137,703.717843984329,0,0,0,0,4,0,horizontal,vertical,horizontal,vertical,vertical,horizontal
1c,8,100126,1,32,32,22,O,NA,variable,homogeneous,3,present,0.724183082580566,1,horizontal,horizontal,1,0.64705803349333,green,1,2,712.784863451954,839.621618300407,1051.12597701811,555.719714694933,712.784863451954,839.621618300407,1051.12597701811,555.719714694933,636.089159529932,404.658667004661,0,0,0,0,0,0,4,0,0,NaN,NaN,NaN,horizontal,vertical,vertical,none,none,none
1c,8,100126,1,33,33,22,O,NA,variable,homogeneous,3,present,0.608913898468018,1,horizontal,horizontal,1,0.705880575359992,red,3,1,549.685068220846,648.656293821019,967.295052392579,792.450942956807,967.295052392579,792.450942956807,883.019879386575,358.892763222174,549.685068220846,648.656293821019,0,0,0,0,0,0,0,0,4,NaN,NaN,NaN,vertical,horizontal,horizontal,none,none,none
1c,8,100126,1,34,34,22,O,NA,variable,homogeneous,3,present,0.494683980941772,1,vertical,vertical,1,0.894112709333312,red,1,2,1006.29933356561,749.885239334581,826.654758133252,346.39691668109,1006.29933356561,749.885239334581,826.654758133252,346.39691668109,567.045908301137,703.717843984329,0,0,0,0,0,0,4,0,0,NaN,NaN,NaN,vertical,horizontal,horizontal,none,none,none
1c,8,100126,1,35,35,22,O,NA,variable,homogeneous,4,absent,0.586664199829102,1,vertical,vertical,1,0.882348200959979,green,1,NaN,676.373546837184,823.028025320546,NaN,NaN,676.373546837184,823.028025320546,1023.02802532055,723.626453162816,923.626453162816,376.971974679454,576.971974679454,476.373546837184,0,0,0,0,4,0,0,0,NaN,NaN,vertical,vertical,vertical,horizontal,none,none
1c,8,100126,1,36,36,22,O,NA,variable,homogeneous,6,absent,0.593820095062256,1,horizontal,horizontal,1,0.764703117226655,green,1,NaN,844.280285305067,851.125977018113,NaN,NaN,844.280285305067,851.125977018113,1039.62161830041,687.215136548046,995.341332995339,436.089159529932,755.719714694933,348.874022981887,560.378381699593,512.784863451954,604.658667004661,763.910840470068,4,0,0,0,0,0,horizontal,horizontal,vertical,horizontal,horizontal,vertical
1c,8,100126,1,37,37,22,O,NA,variable,homogeneous,6,present,0.677978992462158,1,vertical,vertical,1,1.01175779306664,green,1,3,704.475318678942,836.431882914531,1052.5183575291,564.510859255183,704.475318678942,836.431882914531,956.993676208043,800.942742169714,1052.5183575291,564.510859255183,895.524681321058,363.568117085469,643.006323791957,399.057257830286,547.481642470899,635.489140744817,4,0,0,0,0,0,vertical,horizontal,vertical,horizontal,horizontal,vertical
1c,8,100126,1,38,38,22,O,NA,variable,homogeneous,4,present,0.925246953964233,1,vertical,vertical,1,0.670587050239995,red,1,3,895.524681321058,836.431882914531,704.475318678942,363.568117085469,895.524681321058,836.431882914531,1036.43188291453,504.475318678942,704.475318678942,363.568117085469,563.568117085469,695.524681321058,0,0,0,0,4,0,0,0,NaN,NaN,vertical,horizontal,vertical,horizontal,none,none
1c,8,100126,1,39,39,22,O,NA,variable,homogeneous,3,absent,0.562317848205566,1,vertical,vertical,1,0.729409592106657,green,1,NaN,865.998856501143,846.311085703712,NaN,NaN,865.998856501143,846.311085703712,980.31222920257,419.68777079743,553.688914296288,534.001143498857,0,0,0,0,0,0,4,0,0,NaN,NaN,NaN,vertical,vertical,horizontal,none,none,none
1c,8,100126,1,40,40,22,O,NA,variable,homogeneous,3,present,0.728688955307007,1,horizontal,horizontal,1,0.941170742826642,red,2,1,1047.42541020038,661.690083377915,622.862115532956,783.431649086356,622.862115532956,783.431649086356,1047.42541020038,661.690083377915,729.712474266665,354.878267535729,0,0,0,0,0,0,0,4,0,NaN,NaN,NaN,horizontal,horizontal,horizontal,none,none,none
1c,8,100126,1,41,41,22,O,NA,variable,homogeneous,3,present,0.73225998878479,1,vertical,vertical,1,0.847054675839982,green,1,3,588.595418998464,742.594190385041,782.212099195248,345.621167183745,588.595418998464,742.594190385041,1029.19248180629,711.784642431215,782.212099195248,345.621167183745,0,0,0,0,0,0,4,0,0,NaN,NaN,NaN,vertical,horizontal,vertical,none,none,none
1c,8,100126,1,42,42,22,O,NA,variable,homogeneous,6,present,0.798128128051758,1,horizontal,horizontal,1,0.952935251199974,green,1,5,680.284751489598,825.151636179026,664.870587620533,383.747735480111,680.284751489598,825.151636179026,935.129412379467,816.252264519889,1054.84466088987,591.100628340862,919.715248510402,374.848363820974,664.870587620533,383.747735480111,545.155339110131,608.899371659138,4,0,0,0,0,0,horizontal,horizontal,vertical,vertical,horizontal,vertical
1c,8,100126,1,43,43,22,O,NA,variable,homogeneous,5,absent,0.658838033676147,1,vertical,vertical,1,0.635293525119997,red,3,NaN,915.767577433584,372.793336331966,NaN,NaN,839.890788585259,851.86052685176,1051.86052685176,639.890788585259,915.767577433584,372.793336331966,619.68777079743,419.68777079743,572.793336331966,715.767577433584,0,0,0,0,4,0,0,NaN,horizontal,vertical,vertical,horizontal,horizontal,none
1c,8,100126,1,44,44,22,O,NA,variable,homogeneous,3,absent,0.576066970825195,1,horizontal,horizontal,1,0.988228776319972,red,3,NaN,548.13947314824,560.109211414741,NaN,NaN,891.383827134052,838.063008756786,960.476699717708,401.827779828472,548.13947314824,560.109211414741,0,0,0,0,0,0,0,0,4,NaN,NaN,NaN,vertical,vertical,horizontal,none,none,none
1c,8,100126,1,45,45,22,O,NA,variable,homogeneous,3,absent,0.513589143753052,1,horizontal,horizontal,1,0.682351558613327,red,1,NaN,581.422338320961,731.334709102064,NaN,NaN,581.422338320961,731.334709102064,1023.02802532055,723.626453162816,795.549636358493,345.03883773512,0,0,0,0,0,0,4,0,0,NaN,NaN,NaN,horizontal,vertical,horizontal,none,none,none
1c,8,100126,1,46,46,22,O,NA,variable,homogeneous,5,absent,0.433603048324585,1,vertical,vertical,1,1.08234484330663,green,3,NaN,963.910840470068,404.658667004661,NaN,NaN,782.212099195248,854.378832816255,1036.43188291453,695.524681321058,963.910840470068,404.658667004661,664.870587620533,383.747735480111,552.574589799621,661.690083377915,0,0,0,0,4,0,0,NaN,vertical,horizontal,vertical,horizontal,vertical,none
1c,8,100126,1,47,47,22,O,NA,variable,homogeneous,6,present,0.546197891235352,1,horizontal,horizontal,1,1.01175779306664,red,3,6,927.5,379.163522034968,672.5,820.836477965032,927.5,820.836477965032,1055,600,927.5,379.163522034968,672.5,379.163522034968,545,600,672.5,820.836477965032,0,0,4,0,0,0,horizontal,horizontal,horizontal,vertical,vertical,vertical
1c,8,100126,1,48,48,22,O,NA,variable,homogeneous,3,present,0.676060914993286,1,horizontal,horizontal,1,0.917641726079977,green,1,2,581.422338320961,731.334709102064,1023.02802532055,723.626453162816,581.422338320961,731.334709102064,1023.02802532055,723.626453162816,795.549636358493,345.03883773512,0,0,0,0,0,0,4,0,0,NaN,NaN,NaN,horizontal,vertical,vertical,none,none,none
1c,8,100126,1,49,49,22,O,NA,variable,homogeneous,5,present,0.563630104064941,1,horizontal,horizontal,1,0.69411606698666,red,2,5,1032.95409169886,703.717843984329,550.57236181288,653.017481158529,773.345241866748,853.60308331891,1032.95409169886,703.717843984329,970.628304621509,410.498069503264,672.5,379.163522034968,550.57236181288,653.017481158529,0,0,0,4,0,0,0,NaN,vertical,horizontal,vertical,vertical,horizontal,none
1c,8,100126,1,50,50,22,O,NA,variable,homogeneous,6,present,0.640860795974731,1,vertical,vertical,1,0.682351558613327,green,6,3,581.422338320961,731.334709102064,1018.57766167904,468.665290897936,804.450363641507,854.96116226488,1023.02802532055,723.626453162816,1018.57766167904,468.665290897936,795.549636358493,345.03883773512,576.971974679454,476.373546837184,581.422338320961,731.334709102064,0,0,0,0,0,4,vertical,vertical,vertical,horizontal,vertical,vertical
1c,8,100126,1,51,51,22,O,NA,variable,homogeneous,4,present,0.437794923782349,1,horizontal,horizontal,1,0.811761150719984,green,4,2,570.807518193712,711.784642431215,1029.19248180629,488.215357568785,911.784642431215,829.192481806288,1029.19248180629,488.215357568785,688.215357568785,370.807518193712,570.807518193712,711.784642431215,0,0,0,0,0,0,0,4,NaN,NaN,vertical,horizontal,vertical,horizontal,none,none
1c,8,100126,1,52,52,22,O,NA,variable,homogeneous,4,absent,0.498177051544189,1,horizontal,horizontal,1,0.764703117226655,green,4,NaN,558.892763222174,516.980120613425,NaN,NaN,716.980120613425,841.107236777826,1041.10723677783,683.019879386575,883.019879386575,358.892763222174,558.892763222174,516.980120613425,0,0,0,0,0,0,0,4,NaN,NaN,horizontal,vertical,vertical,horizontal,none,none
1c,8,100126,1,53,53,22,O,NA,variable,homogeneous,4,absent,0.596396923065186,0,horizontal,vertical,1,0.811761150719984,green,1,NaN,844.280285305067,851.125977018113,NaN,NaN,844.280285305067,851.125977018113,1051.12597701811,555.719714694933,755.719714694933,348.874022981887,548.874022981887,644.280285305067,0,0,0,0,4,0,0,0,NaN,NaN,horizontal,vertical,horizontal,horizontal,none,none
1c,8,100126,1,54,54,22,O,NA,variable,homogeneous,5,absent,0.592222929000854,1,vertical,vertical,1,0.78823213397332,green,3,NaN,822.224714400653,345.970351986605,NaN,NaN,931.334709102064,818.577661679039,1048.46436652023,542.637481142314,822.224714400653,345.970351986605,565.271262369628,500.363562235235,632.704947607421,792.450942956807,0,0,0,0,4,0,0,NaN,vertical,vertical,vertical,horizontal,horizontal,none
1c,8,100126,1,55,55,22,O,NA,variable,homogeneous,5,absent,0.604013919830322,1,horizontal,horizontal,1,0.988228776319972,red,5,NaN,545.155339110131,591.100628340862,NaN,NaN,712.784863451954,839.621618300407,1000.94274216971,756.993676208043,1011.40458100154,457.40580961496,729.712474266665,354.878267535729,545.155339110131,591.100628340862,0,0,0,0,0,0,4,NaN,vertical,vertical,horizontal,horizontal,horizontal,none
1c,8,100126,1,56,56,22,O,NA,variable,homogeneous,6,absent,0.529216051101685,1,horizontal,horizontal,1,0.64705803349333,red,5,NaN,570.807518193712,488.215357568785,NaN,NaN,817.787900804752,854.378832816255,1029.19248180629,711.784642431215,1011.40458100154,457.40580961496,782.212099195248,345.621167183745,570.807518193712,488.215357568785,588.595418998464,742.594190385041,0,0,0,0,4,0,vertical,horizontal,horizontal,vertical,horizontal,vertical
1c,8,100126,1,57,57,22,O,NA,variable,homogeneous,5,absent,0.577032089233398,1,horizontal,horizontal,1,1.05881582655997,green,3,NaN,923.626453162816,376.971974679454,NaN,NaN,831.076682568313,853.099268668537,1050.31493177915,648.656293821019,923.626453162816,376.971974679454,626.090418184063,413.504806087112,568.891514305654,707.767656743878,0,0,0,0,4,0,0,NaN,horizontal,horizontal,horizontal,horizontal,horizontal,none
1c,8,100126,1,58,58,22,O,NA,variable,homogeneous,4,absent,0.506688117980957,1,horizontal,horizontal,1,0.682351558613327,red,4,NaN,604.658667004661,436.089159529932,NaN,NaN,636.089159529932,795.341332995339,995.341332995339,763.910840470068,963.910840470068,404.658667004661,604.658667004661,436.089159529932,0,0,0,0,0,0,0,4,NaN,NaN,vertical,vertical,horizontal,horizontal,none,none
1c,8,100126,1,59,59,22,O,NA,variable,homogeneous,3,absent,0.510159969329834,1,horizontal,horizontal,1,1.04705131818663,green,3,NaN,751.343706178981,349.685068220846,NaN,NaN,607.549057043193,767.295052392579,1041.10723677783,683.019879386575,751.343706178981,349.685068220846,0,0,0,0,0,0,0,0,4,NaN,NaN,NaN,horizontal,horizontal,horizontal,none,none,none
1c,8,100126,1,60,60,22,O,NA,variable,homogeneous,3,absent,0.913970947265625,1,vertical,vertical,1,0.870583692586647,green,2,NaN,1054.0296480134,577.775285599347,NaN,NaN,692.232343256122,831.108485694346,1054.0296480134,577.775285599347,653.738008730483,391.116228706307,0,0,0,0,0,0,0,4,0,NaN,NaN,NaN,vertical,vertical,horizontal,none,none,none
1c,8,100126,1,61,61,22,O,NA,variable,homogeneous,6,absent,0.625797033309937,1,vertical,vertical,1,0.682351558613327,red,5,NaN,556.142287229426,525.445215295702,NaN,NaN,857.362518857686,848.464366520235,1043.85771277057,674.554784704298,986.495193912888,426.090418184063,742.637481142314,351.535633479765,556.142287229426,525.445215295702,613.504806087112,773.909581815937,0,0,0,0,4,0,horizontal,horizontal,vertical,vertical,vertical,horizontal
1c,8,100126,1,62,62,22,O,NA,variable,homogeneous,4,present,0.559440851211548,1,horizontal,horizontal,1,0.623529016746665,green,2,4,1011.40458100154,457.40580961496,588.595418998464,742.594190385041,942.594190385041,811.404581001536,1011.40458100154,457.40580961496,657.405809614959,388.595418998464,588.595418998464,742.594190385041,0,0,0,0,0,4,0,0,NaN,NaN,horizontal,horizontal,vertical,horizontal,none,none
1c,8,100126,1,63,63,22,O,NA,variable,homogeneous,6,absent,0.643362998962402,1,vertical,vertical,1,0.847054675839982,red,5,NaN,545.621167183745,582.212099195248,NaN,NaN,911.784642431215,829.192481806288,1054.37883281626,617.787900804752,942.594190385041,388.595418998464,688.215357568785,370.807518193712,545.621167183745,582.212099195248,657.405809614959,811.404581001536,0,0,0,0,4,0,vertical,vertical,horizontal,horizontal,vertical,horizontal
1c,8,100126,1,64,64,22,O,NA,variable,homogeneous,5,present,0.616948843002319,1,horizontal,horizontal,1,1.0352868098133,green,5,1,560.378381699593,687.215136548046,808.899371659138,854.844660889869,808.899371659138,854.844660889869,1045.12173246427,670.287525733335,942.594190385041,388.595418998464,643.006323791957,399.057257830286,560.378381699593,687.215136548046,0,0,0,0,0,0,4,NaN,vertical,horizontal,vertical,vertical,horizontal,none
1c,8,100126,2,1,65,22,O,NA,variable,homogeneous,5,present,0.567097902297974,1,horizontal,horizontal,1,0.941170742826642,red,3,4,891.383827134052,361.936991243214,601.827779828472,439.523300282291,865.998856501143,846.311085703712,1054.65053136242,613.345668841951,891.383827134052,361.936991243214,601.827779828472,439.523300282291,586.139005173917,738.882953928832,0,0,0,0,4,0,0,NaN,horizontal,vertical,horizontal,horizontal,horizontal,none
1c,8,100126,2,2,66,22,O,NA,variable,homogeneous,5,absent,0.548441886901855,1,vertical,vertical,1,0.905877217706644,red,3,NaN,839.890788585259,348.13947314824,NaN,NaN,915.767577433584,827.206663668034,1051.86052685176,560.109211414741,839.890788585259,348.13947314824,572.793336331966,484.232422566416,619.68777079743,780.31222920257,0,0,0,0,4,0,0,NaN,vertical,horizontal,vertical,vertical,vertical,none
1c,8,100126,2,3,67,22,O,NA,variable,homogeneous,6,absent,0.849286079406738,1,horizontal,horizontal,1,0.882348200959979,red,1,NaN,716.980120613425,841.107236777826,NaN,NaN,716.980120613425,841.107236777826,967.295052392579,792.450942956807,1050.31493177915,551.343706178981,883.019879386575,358.892763222174,632.704947607421,407.549057043193,549.685068220846,648.656293821019,4,0,0,0,0,0,horizontal,vertical,horizontal,horizontal,horizontal,horizontal
1c,8,100126,2,4,68,22,O,NA,variable,homogeneous,3,absent,0.643560171127319,1,vertical,vertical,1,0.658822541866662,red,1,NaN,626.090418184063,786.495193912888,NaN,NaN,626.090418184063,786.495193912888,1048.46436652023,657.362518857686,725.445215295702,356.142287229426,0,0,0,0,0,0,4,0,0,NaN,NaN,NaN,vertical,vertical,horizontal,none,none,none
1c,8,100126,2,5,69,22,O,NA,variable,homogeneous,4,present,0.672407865524292,1,vertical,vertical,1,0.988228776319972,green,1,3,643.006323791957,800.942742169714,956.993676208043,399.057257830286,643.006323791957,800.942742169714,1000.94274216971,756.993676208043,956.993676208043,399.057257830286,599.057257830286,443.006323791957,0,0,0,0,4,0,0,0,NaN,NaN,vertical,vertical,vertical,horizontal,none,none
1c,8,100126,2,6,70,22,O,NA,variable,homogeneous,6,absent,0.700644969940186,1,horizontal,horizontal,1,0.729409592106657,red,6,NaN,629.371695378491,789.501930496736,NaN,NaN,878.799333565612,842.519411655264,1049.42763818712,653.017481158529,970.628304621509,410.498069503264,721.200666434388,357.480588344736,550.57236181288,546.982518841471,629.371695378491,789.501930496736,0,0,0,0,0,4,vertical,vertical,horizontal,horizontal,vertical,horizontal
1c,8,100126,2,7,71,22,O,NA,variable,homogeneous,6,absent,0.667350053787231,1,vertical,vertical,1,0.823525659093317,red,2,NaN,1054.37883281626,617.787900804752,NaN,NaN,911.784642431215,829.192481806288,1054.37883281626,617.787900804752,942.594190385041,388.595418998464,688.215357568785,370.807518193712,545.621167183745,582.212099195248,657.405809614959,811.404581001536,0,4,0,0,0,0,vertical,vertical,horizontal,horizontal,vertical,horizontal
1c,8,100126,2,8,72,22,O,NA,variable,homogeneous,5,present,0.644134044647217,1,vertical,vertical,1,0.976464267946639,green,3,2,1039.62161830041,512.784863451954,956.993676208043,800.942742169714,657.405809614959,811.404581001536,956.993676208043,800.942742169714,1039.62161830041,512.784863451954,791.100628340862,345.155339110131,554.878267535729,529.712474266665,0,0,0,0,4,0,0,NaN,vertical,vertical,vertical,horizontal,vertical,none
1c,8,100126,2,9,73,22,O,NA,variable,homogeneous,3,present,0.871514081954956,1,vertical,vertical,1,0.917641726079977,red,1,2,883.019879386575,841.107236777826,967.295052392579,407.549057043193,883.019879386575,841.107236777826,967.295052392579,407.549057043193,549.685068220846,551.343706178981,0,0,0,0,0,0,4,0,0,NaN,NaN,NaN,vertical,vertical,horizontal,none,none,none
1c,8,100126,2,10,74,22,O,NA,variable,homogeneous,4,absent,0.655962944030762,1,horizontal,horizontal,1,0.717645083733325,green,1,NaN,973.909581815937,786.495193912888,NaN,NaN,973.909581815937,786.495193912888,986.495193912888,426.090418184063,626.090418184063,413.504806087112,613.504806087112,773.909581815937,0,0,0,0,4,0,0,0,NaN,NaN,horizontal,vertical,vertical,horizontal,none,none
1c,8,100126,2,11,75,22,O,NA,variable,homogeneous,5,absent,0.664156198501587,1,horizontal,horizontal,1,0.764703117226655,green,1,NaN,938.882953928832,813.860994826083,NaN,NaN,938.882953928832,813.860994826083,1046.31108570371,534.001143498857,813.345668841951,345.349468637584,561.936991243214,508.616172865948,639.523300282292,798.172220171528,0,0,4,0,0,0,0,NaN,horizontal,vertical,vertical,vertical,horizontal,none
1c,8,100126,2,12,76,22,O,NA,variable,homogeneous,4,absent,0.739315032958984,1,horizontal,horizontal,1,0.894112709333312,green,1,NaN,967.295052392579,792.450942956807,NaN,NaN,967.295052392579,792.450942956807,992.450942956807,432.704947607421,632.704947607421,407.549057043193,607.549057043193,767.295052392579,0,0,0,0,4,0,0,0,NaN,NaN,horizontal,vertical,horizontal,vertical,none,none
1c,8,100126,2,13,77,22,O,NA,variable,homogeneous,5,absent,0.811022043228149,1,horizontal,horizontal,1,0.83529016746665,red,3,NaN,963.910840470068,404.658667004661,NaN,NaN,782.212099195248,854.378832816255,1036.43188291453,695.524681321058,963.910840470068,404.658667004661,664.870587620533,383.747735480111,552.574589799621,661.690083377915,0,0,0,0,4,0,0,NaN,horizontal,vertical,horizontal,vertical,horizontal,none
1c,8,100126,2,14,78,22,O,NA,variable,homogeneous,4,present,0.837957859039307,1,horizontal,horizontal,1,0.917641726079977,red,3,4,874.554784704298,356.142287229426,556.142287229426,525.445215295702,725.445215295702,843.857712770574,1043.85771277057,674.554784704298,874.554784704298,356.142287229426,556.142287229426,525.445215295702,0,0,0,0,0,0,4,0,NaN,NaN,vertical,vertical,horizontal,vertical,none,none
1c,8,100126,2,15,79,22,O,NA,variable,homogeneous,4,absent,0.907660961151123,1,vertical,vertical,1,0.83529016746665,green,3,NaN,938.882953928832,386.139005173917,NaN,NaN,661.117046071168,813.860994826083,1013.86099482608,738.882953928832,938.882953928832,386.139005173917,586.139005173917,461.117046071168,0,0,0,0,0,0,4,0,NaN,NaN,horizontal,vertical,vertical,horizontal,none,none
1c,8,100126,2,16,80,22,O,NA,variable,homogeneous,6,absent,0.738681077957153,1,horizontal,horizontal,1,1.0352868098133,green,2,NaN,1051.12597701811,644.280285305067,NaN,NaN,887.215136548046,839.621618300407,1051.12597701811,644.280285305067,963.910840470068,404.658667004661,712.784863451954,360.378381699593,548.874022981887,555.719714694933,636.089159529932,795.341332995339,0,4,0,0,0,0,vertical,horizontal,vertical,vertical,vertical,horizontal
1c,8,100126,2,17,81,22,O,NA,variable,homogeneous,5,absent,0.641415119171143,1,vertical,vertical,1,1.01175779306664,green,3,NaN,865.998856501143,353.688914296288,NaN,NaN,891.383827134052,838.063008756786,1054.65053136242,586.654331158049,865.998856501143,353.688914296288,586.139005173917,461.117046071168,601.827779828472,760.476699717708,0,0,0,0,4,0,0,NaN,horizontal,vertical,vertical,horizontal,vertical,none
1c,8,100126,2,18,82,22,O,NA,variable,homogeneous,4,absent,0.723150968551636,1,horizontal,horizontal,1,0.623529016746665,red,4,NaN,553.688914296288,534.001143498857,NaN,NaN,734.001143498857,846.311085703712,1046.31108570371,665.998856501143,865.998856501143,353.688914296288,553.688914296288,534.001143498857,0,0,0,0,0,0,0,4,NaN,NaN,vertical,horizontal,vertical,horizontal,none,none
1c,8,100126,2,19,83,22,O,NA,variable,homogeneous,5,absent,0.848860025405884,1,vertical,vertical,1,0.752938608853322,green,4,NaN,688.215357568785,370.807518193712,NaN,NaN,755.719714694933,851.125977018113,1025.15163617903,719.715248510402,983.431649086356,422.862115532956,688.215357568785,370.807518193712,547.481642470899,635.489140744817,0,0,0,0,0,4,0,NaN,vertical,vertical,horizontal,vertical,vertical,none
1c,8,100126,2,20,84,22,O,NA,variable,homogeneous,6,present,0.510838031768799,1,vertical,vertical,1,0.64705803349333,red,1,5,729.712474266665,845.121732464271,622.862115532956,416.568350913644,729.712474266665,845.121732464271,977.137884467044,783.431649086356,1047.42541020038,538.309916622085,870.287525733335,354.878267535729,622.862115532956,416.568350913644,552.574589799621,661.690083377915,4,0,0,0,0,0,vertical,vertical,horizontal,horizontal,vertical,horizontal
1c,8,100126,2,21,85,22,O,NA,variable,homogeneous,4,present,1.08838105201721,1,horizontal,horizontal,1,0.752938608853322,red,1,2,629.371695378491,789.501930496736,989.501930496736,770.628304621509,629.371695378491,789.501930496736,989.501930496736,770.628304621509,970.628304621509,410.498069503264,610.498069503264,429.371695378491,0,0,0,0,4,0,0,0,NaN,NaN,horizontal,horizontal,horizontal,horizontal,none,none
1c,8,100126,2,22,86,22,O,NA,variable,homogeneous,6,present,0.662971019744873,1,horizontal,horizontal,1,1.0352868098133,green,2,6,1003.65205506206,753.462830903772,565.271262369628,699.636437764765,768.923317431687,853.099268668537,1003.65205506206,753.462830903772,1034.72873763037,500.363562235235,831.076682568313,346.900731331463,596.34794493794,446.537169096228,565.271262369628,699.636437764765,0,4,0,0,0,0,vertical,horizontal,vertical,vertical,vertical,vertical
1c,8,100126,2,23,87,22,O,NA,variable,homogeneous,4,present,0.576621055603027,1,vertical,vertical,1,0.999993284693304,red,1,2,853.017481158529,849.42763818712,1049.42763818712,546.982518841471,853.017481158529,849.42763818712,1049.42763818712,546.982518841471,746.982518841471,350.57236181288,550.57236181288,653.017481158529,0,0,0,0,4,0,0,0,NaN,NaN,vertical,horizontal,horizontal,horizontal,none,none
1c,8,100126,2,24,88,22,O,NA,variable,homogeneous,4,absent,0.655526161193848,1,horizontal,horizontal,1,0.764703117226655,red,4,NaN,565.271262369628,500.363562235235,NaN,NaN,700.363562235235,834.728737630372,1034.72873763037,699.636437764765,899.636437764765,365.271262369628,565.271262369628,500.363562235235,0,0,0,0,0,0,0,4,NaN,NaN,horizontal,vertical,vertical,horizontal,none,none
1c,8,100126,2,25,89,22,O,NA,variable,homogeneous,3,absent,0.731755971908569,0,horizontal,vertical,1,0.952935251199974,green,1,NaN,751.343706178981,850.314931779154,NaN,NaN,751.343706178981,850.314931779154,1041.10723677783,516.980120613425,607.549057043193,432.704947607421,0,0,0,0,0,0,4,0,0,NaN,NaN,NaN,horizontal,vertical,vertical,none,none,none
1c,8,100126,2,26,90,22,O,NA,variable,homogeneous,3,absent,0.693724870681763,1,vertical,vertical,1,0.752938608853322,green,3,NaN,622.862115532956,416.568350913644,NaN,NaN,729.712474266665,845.121732464271,1047.42541020038,538.309916622085,622.862115532956,416.568350913644,0,0,0,0,0,0,0,0,4,NaN,NaN,NaN,horizontal,vertical,vertical,none,none,none
1c,8,100126,2,27,91,22,O,NA,variable,homogeneous,3,present,0.654206991195679,1,horizontal,horizontal,1,0.917641726079977,green,1,2,927.5,820.836477965032,927.5,379.163522034968,927.5,820.836477965032,927.5,379.163522034968,545,600,0,0,0,0,0,0,4,0,0,NaN,NaN,NaN,horizontal,horizontal,horizontal,none,none,none
1c,8,100126,2,28,92,22,O,NA,variable,homogeneous,5,present,0.680121898651123,1,horizontal,horizontal,1,0.83529016746665,green,1,2,839.890788585259,851.86052685176,1051.86052685176,639.890788585259,839.890788585259,851.86052685176,1051.86052685176,639.890788585259,915.767577433584,372.793336331966,619.68777079743,419.68777079743,572.793336331966,715.767577433584,0,0,4,0,0,0,0,NaN,horizontal,horizontal,vertical,horizontal,vertical,none
1c,8,100126,2,29,93,22,O,NA,variable,homogeneous,5,absent,0.690442085266113,1,horizontal,horizontal,1,1.0352868098133,green,2,NaN,1016.25226451989,735.129412379467,NaN,NaN,738.309916622085,847.425410200379,1016.25226451989,735.129412379467,995.341332995339,436.089159529932,704.475318678942,363.568117085469,545.621167183745,617.787900804752,0,0,0,4,0,0,0,NaN,horizontal,horizontal,vertical,vertical,vertical,none
1c,8,100126,2,30,94,22,O,NA,variable,homogeneous,3,absent,0.524378776550293,1,horizontal,horizontal,1,0.799996642346652,green,2,NaN,865.998856501143,353.688914296288,NaN,NaN,980.31222920257,780.31222920257,865.998856501143,353.688914296288,553.688914296288,665.998856501143,0,0,0,0,0,0,0,4,0,NaN,NaN,NaN,vertical,horizontal,horizontal,none,none,none
1c,8,100126,2,31,95,22,O,NA,variable,homogeneous,5,present,0.615573883056641,1,vertical,vertical,1,0.83529016746665,red,2,4,960.476699717708,798.172220171528,786.654331158049,345.349468637584,661.117046071168,813.860994826083,960.476699717708,798.172220171528,1038.06300875679,508.616172865948,786.654331158049,345.349468637584,553.688914296288,534.001143498857,0,0,0,4,0,0,0,NaN,vertical,vertical,vertical,vertical,horizontal,none
1c,8,100126,2,32,96,22,O,NA,variable,homogeneous,6,present,0.651950836181641,1,vertical,vertical,1,0.988228776319972,green,3,6,1018.57766167904,468.665290897936,581.422338320961,731.334709102064,804.450363641507,854.96116226488,1023.02802532055,723.626453162816,1018.57766167904,468.665290897936,795.549636358493,345.03883773512,576.971974679454,476.373546837184,581.422338320961,731.334709102064,0,0,4,0,0,0,horizontal,vertical,vertical,horizontal,vertical,vertical
1c,8,100126,2,33,97,22,O,NA,variable,homogeneous,6,absent,0.554887056350708,1,vertical,vertical,1,0.870583692586647,red,4,NaN,895.524681321058,363.568117085469,NaN,NaN,704.475318678942,836.431882914531,956.993676208043,800.942742169714,1052.5183575291,564.510859255183,895.524681321058,363.568117085469,643.006323791957,399.057257830286,547.481642470899,635.489140744817,0,0,0,4,0,0,vertical,vertical,vertical,vertical,vertical,horizontal
1c,8,100126,2,34,98,22,O,NA,variable,homogeneous,5,present,0.967329978942871,1,horizontal,horizontal,1,0.870583692586647,green,4,2,668.665290897936,381.422338320961,1034.72873763037,699.636437764765,777.775285599347,854.029648013395,1034.72873763037,699.636437764765,967.295052392579,407.549057043193,668.665290897936,381.422338320961,551.535633479765,657.362518857686,0,0,0,0,0,4,0,NaN,vertical,vertical,vertical,horizontal,horizontal,none
1c,8,100126,2,35,99,22,O,NA,variable,homogeneous,4,present,0.591279983520508,1,horizontal,horizontal,1,1.02352230143997,green,4,3,568.891514305654,707.767656743878,692.232343256122,368.891514305654,907.767656743878,831.108485694346,1031.10848569435,492.232343256122,692.232343256122,368.891514305654,568.891514305654,707.767656743878,0,0,0,0,0,0,0,4,NaN,NaN,horizontal,vertical,vertical,horizontal,none,none
1c,8,100126,2,36,100,22,O,NA,variable,homogeneous,6,absent,0.60082483291626,1,vertical,vertical,1,0.870583692586647,green,4,NaN,911.784642431215,370.807518193712,NaN,NaN,688.215357568785,829.192481806288,942.594190385041,811.404581001536,1054.37883281626,582.212099195248,911.784642431215,370.807518193712,657.405809614959,388.595418998464,545.621167183745,617.787900804752,0,0,0,4,0,0,horizontal,horizontal,horizontal,vertical,horizontal,vertical
1c,8,100126,2,37,101,22,O,NA,variable,homogeneous,3,present,0.85716986656189,1,vertical,vertical,1,0.811761150719984,red,2,3,1032.95409169886,703.717843984329,773.345241866748,346.39691668109,593.700666434388,749.885239334581,1032.95409169886,703.717843984329,773.345241866748,346.39691668109,0,0,0,0,0,0,0,4,0,NaN,NaN,NaN,horizontal,vertical,horizontal,none,none,none
1c,8,100126,2,38,102,22,O,NA,variable,homogeneous,4,present,0.827641010284424,1,horizontal,horizontal,1,0.658822541866662,green,4,2,551.535633479765,657.362518857686,1048.46436652023,542.637481142314,857.362518857686,848.464366520235,1048.46436652023,542.637481142314,742.637481142314,351.535633479765,551.535633479765,657.362518857686,0,0,0,0,0,0,0,4,NaN,NaN,horizontal,vertical,vertical,horizontal,none,none
1c,8,100126,2,39,103,22,O,NA,variable,homogeneous,3,present,0.761061906814575,1,horizontal,horizontal,1,0.623529016746665,red,2,1,989.501930496736,429.371695378491,853.017481158529,849.42763818712,853.017481158529,849.42763818712,989.501930496736,429.371695378491,557.480588344736,521.200666434388,0,0,0,0,0,0,0,4,0,NaN,NaN,NaN,vertical,horizontal,horizontal,none,none,none
1c,8,100126,2,40,104,22,O,NA,variable,homogeneous,5,present,0.820734024047852,1,vertical,vertical,1,0.623529016746665,red,3,2,998.172220171528,439.523300282291,1013.86099482608,738.882953928832,734.001143498857,846.311085703712,1013.86099482608,738.882953928832,998.172220171528,439.523300282291,708.616172865948,361.936991243214,545.349468637584,613.345668841951,0,0,0,0,4,0,0,NaN,vertical,vertical,vertical,vertical,vertical,none
1c,8,100126,2,41,105,22,O,NA,variable,homogeneous,3,present,0.718996047973633,1,horizontal,horizontal,1,0.69411606698666,green,3,2,572.793336331966,484.232422566416,1013.86099482608,461.117046071168,813.345668841951,854.650531362416,1013.86099482608,461.117046071168,572.793336331966,484.232422566416,0,0,0,0,0,0,0,0,4,NaN,NaN,NaN,horizontal,vertical,horizontal,none,none,none
1c,8,100126,2,42,106,22,O,NA,variable,homogeneous,3,absent,0.639125823974609,1,vertical,vertical,1,0.870583692586647,red,3,NaN,596.34794493794,446.537169096228,NaN,NaN,768.923317431687,853.099268668537,1034.72873763037,500.363562235235,596.34794493794,446.537169096228,0,0,0,0,0,0,0,0,4,NaN,NaN,NaN,vertical,horizontal,vertical,none,none,none
1c,8,100126,2,43,107,22,O,NA,variable,homogeneous,3,absent,0.61939001083374,1,horizontal,horizontal,1,0.764703117226655,red,1,NaN,1011.40458100154,742.594190385041,NaN,NaN,1011.40458100154,742.594190385041,817.787900804752,345.621167183745,570.807518193712,711.784642431215,0,0,0,0,0,0,4,0,0,NaN,NaN,NaN,horizontal,vertical,horizontal,none,none,none
1c,8,100126,2,44,108,22,O,NA,variable,homogeneous,6,present,0.637274026870728,1,horizontal,horizontal,1,0.870583692586647,red,4,6,857.362518857686,351.535633479765,556.142287229426,674.554784704298,742.637481142314,848.464366520235,986.495193912888,773.909581815937,1043.85771277057,525.445215295702,857.362518857686,351.535633479765,613.504806087112,426.090418184063,556.142287229426,674.554784704298,0,0,0,4,0,0,horizontal,horizontal,vertical,horizontal,vertical,vertical
1c,8,100126,2,45,109,22,O,NA,variable,homogeneous,4,present,0.656596899032593,1,vertical,vertical,1,0.917641726079977,green,2,4,1041.10723677783,516.980120613425,558.892763222174,683.019879386575,883.019879386575,841.107236777826,1041.10723677783,516.980120613425,716.980120613425,358.892763222174,558.892763222174,683.019879386575,0,0,0,0,0,4,0,0,NaN,NaN,horizontal,vertical,vertical,horizontal,none,none
1c,8,100126,2,46,110,22,O,NA,variable,homogeneous,3,absent,0.519196033477783,1,vertical,vertical,1,1.0705803349333,green,2,NaN,1053.09926866854,631.076682568313,NaN,NaN,646.537169096228,803.65205506206,1053.09926866854,631.076682568313,700.363562235235,365.271262369628,0,0,0,0,0,0,0,4,0,NaN,NaN,NaN,vertical,vertical,horizontal,none,none,none
1c,8,100126,2,47,111,22,O,NA,variable,homogeneous,5,present,0.70878005027771,1,horizontal,horizontal,1,0.952935251199974,red,1,5,795.549636358493,854.96116226488,556.142287229426,674.554784704298,795.549636358493,854.96116226488,1041.10723677783,683.019879386575,953.462830903772,396.34794493794,653.738008730483,391.116228706307,556.142287229426,674.554784704298,0,0,4,0,0,0,0,NaN,horizontal,vertical,horizontal,vertical,horizontal,none
1c,8,100126,2,48,112,22,O,NA,variable,homogeneous,6,present,0.980009078979492,1,vertical,vertical,1,1.0352868098133,green,5,3,583.747735480111,464.870587620533,1025.15163617903,480.284751489598,791.100628340862,854.844660889869,1016.25226451989,735.129412379467,1025.15163617903,480.284751489598,808.899371659138,345.155339110131,583.747735480111,464.870587620533,574.848363820974,719.715248510402,0,0,0,0,4,0,vertical,horizontal,vertical,horizontal,vertical,vertical
1c,8,100126,2,49,113,22,O,NA,variable,homogeneous,6,present,0.688210964202881,1,horizontal,horizontal,1,0.623529016746665,green,1,2,895.524681321058,836.431882914531,1052.5183575291,635.489140744817,895.524681321058,836.431882914531,1052.5183575291,635.489140744817,956.993676208043,399.057257830286,704.475318678942,363.568117085469,547.481642470899,564.510859255183,643.006323791957,800.942742169714,4,0,0,0,0,0,horizontal,vertical,horizontal,horizontal,horizontal,horizontal
1c,8,100126,2,50,114,22,O,NA,variable,homogeneous,3,absent,0.710899114608765,1,horizontal,horizontal,1,0.83529016746665,red,1,NaN,604.658667004661,763.910840470068,NaN,NaN,604.658667004661,763.910840470068,1039.62161830041,687.215136548046,755.719714694933,348.874022981887,0,0,0,0,0,0,4,0,0,NaN,NaN,NaN,horizontal,vertical,vertical,none,none,none
1c,8,100126,2,51,115,22,O,NA,variable,homogeneous,4,absent,0.57582688331604,1,vertical,vertical,1,0.729409592106657,green,4,NaN,616.568350913644,422.862115532956,NaN,NaN,622.862115532956,783.431649086356,983.431649086356,777.137884467044,977.137884467044,416.568350913644,616.568350913644,422.862115532956,0,0,0,0,0,0,0,4,NaN,NaN,horizontal,vertical,vertical,vertical,none,none
1c,8,100126,2,52,116,22,O,NA,variable,homogeneous,4,absent,0.570240020751953,1,vertical,vertical,1,0.929406234453309,red,2,NaN,1018.57766167904,731.334709102064,NaN,NaN,668.665290897936,818.577661679039,1018.57766167904,731.334709102064,931.334709102064,381.422338320961,581.422338320961,468.665290897936,0,0,0,0,0,4,0,0,NaN,NaN,vertical,vertical,horizontal,horizontal,none,none
1c,8,100126,2,53,117,22,O,NA,variable,homogeneous,6,present,0.580588817596436,1,horizontal,horizontal,1,0.74117410047999,red,5,1,546.900731331463,568.923317431687,899.636437764765,834.728737630372,899.636437764765,834.728737630372,1053.09926866854,631.076682568313,953.462830903772,396.34794493794,700.363562235235,365.271262369628,546.900731331463,568.923317431687,646.537169096228,803.65205506206,0,0,0,0,4,0,vertical,vertical,horizontal,horizontal,horizontal,vertical
1c,8,100126,2,54,118,22,O,NA,variable,homogeneous,3,present,0.827605009078979,1,vertical,vertical,1,0.764703117226655,green,3,1,795.549636358493,345.03883773512,581.422338320961,731.334709102064,581.422338320961,731.334709102064,1023.02802532055,723.626453162816,795.549636358493,345.03883773512,0,0,0,0,0,0,0,0,4,NaN,NaN,NaN,vertical,vertical,vertical,none,none,none
1c,8,100126,2,55,119,22,O,NA,variable,homogeneous,6,absent,0.633323907852173,1,horizontal,horizontal,1,0.64705803349333,green,2,NaN,1053.60308331891,626.654758133252,NaN,NaN,903.717843984329,832.954091698863,1053.60308331891,626.654758133252,949.885239334581,393.700666434388,696.282156015671,367.045908301137,546.39691668109,573.345241866748,650.114760665419,806.299333565612,0,4,0,0,0,0,horizontal,horizontal,vertical,vertical,vertical,vertical
1c,8,100126,2,56,120,22,O,NA,variable,homogeneous,5,absent,0.980673789978027,1,vertical,vertical,1,0.729409592106657,red,1,NaN,708.616172865948,838.063008756786,NaN,NaN,708.616172865948,838.063008756786,998.172220171528,760.476699717708,1013.86099482608,461.117046071168,734.001143498857,353.688914296288,545.349468637584,586.654331158049,0,0,4,0,0,0,0,NaN,vertical,horizontal,vertical,vertical,vertical,none
1c,8,100126,2,57,121,22,O,NA,variable,homogeneous,3,present,0.598532915115356,1,horizontal,horizontal,1,0.905877217706644,red,3,1,601.827779828472,439.523300282291,760.109211414741,851.86052685176,760.109211414741,851.86052685176,1038.06300875679,508.616172865948,601.827779828472,439.523300282291,0,0,0,0,0,0,0,0,4,NaN,NaN,NaN,vertical,horizontal,horizontal,none,none,none
1c,8,100126,2,58,122,22,O,NA,variable,homogeneous,5,absent,0.807415962219238,1,horizontal,horizontal,1,1.0352868098133,red,4,NaN,764.510859255183,347.4816424709,NaN,NaN,680.284751489598,825.151636179026,977.137884467044,783.431649086356,1029.19248180629,488.215357568785,764.510859255183,347.4816424709,548.874022981887,555.719714694933,0,0,0,0,0,4,0,NaN,horizontal,vertical,horizontal,horizontal,horizontal,none
1c,8,100126,2,59,123,22,O,NA,variable,homogeneous,4,present,0.552408933639526,1,vertical,vertical,1,0.635293525119997,red,3,1,734.001143498857,353.688914296288,865.998856501143,846.311085703712,865.998856501143,846.311085703712,1046.31108570371,534.001143498857,734.001143498857,353.688914296288,553.688914296288,665.998856501143,0,0,0,0,0,0,4,0,NaN,NaN,vertical,vertical,vertical,horizontal,none,none
1c,8,100126,2,60,124,22,O,NA,variable,homogeneous,6,present,0.699486970901489,1,vertical,vertical,1,0.976464267946639,red,1,6,676.373546837184,823.028025320546,545.03883773512,604.450363641507,676.373546837184,823.028025320546,931.334709102064,818.577661679039,1054.96116226488,595.549636358493,923.626453162816,376.971974679454,668.665290897936,381.422338320961,545.03883773512,604.450363641507,4,0,0,0,0,0,vertical,vertical,vertical,horizontal,vertical,vertical
1c,8,100126,2,61,125,22,O,NA,variable,homogeneous,3,present,0.548414945602417,1,vertical,vertical,1,0.74117410047999,green,1,3,786.654331158049,854.650531362416,586.139005173917,461.117046071168,786.654331158049,854.650531362416,1027.20666366803,484.232422566416,586.139005173917,461.117046071168,0,0,0,0,0,0,4,0,0,NaN,NaN,NaN,vertical,horizontal,vertical,none,none,none
1c,8,100126,2,62,126,22,O,NA,variable,homogeneous,4,absent,0.615984916687012,1,vertical,vertical,1,1.0352868098133,red,2,NaN,989.501930496736,429.371695378491,NaN,NaN,970.628304621509,789.501930496736,989.501930496736,429.371695378491,629.371695378491,410.498069503264,610.498069503264,770.628304621509,0,0,0,0,0,4,0,0,NaN,NaN,vertical,vertical,horizontal,vertical,none,none
1c,8,100126,2,63,127,22,O,NA,variable,homogeneous,6,absent,0.722893953323364,1,vertical,vertical,1,0.917641726079977,green,3,NaN,960.476699717708,401.827779828472,NaN,NaN,891.383827134052,838.063008756786,1051.86052685176,639.890788585259,960.476699717708,401.827779828472,708.616172865948,361.936991243214,548.13947314824,560.109211414741,639.523300282292,798.172220171528,0,0,4,0,0,0,vertical,vertical,vertical,horizontal,vertical,horizontal
1c,8,100126,2,64,128,22,O,NA,variable,homogeneous,5,present,0.660078048706055,1,vertical,vertical,1,0.917641726079977,green,1,3,887.215136548046,839.621618300407,870.287525733335,354.878267535729,887.215136548046,839.621618300407,1054.84466088987,591.100628340862,870.287525733335,354.878267535729,588.595418998464,457.40580961496,599.057257830286,756.993676208043,0,0,4,0,0,0,0,NaN,vertical,vertical,vertical,horizontal,horizontal,none
1c,8,100126,3,1,129,22,O,NA,variable,homogeneous,4,absent,0.642773866653442,1,vertical,vertical,1,0.929406234453309,red,4,NaN,552.574589799621,661.690083377915,NaN,NaN,861.690083377915,847.425410200379,1047.42541020038,538.309916622085,738.309916622085,352.574589799621,552.574589799621,661.690083377915,0,0,0,0,0,0,0,4,NaN,NaN,vertical,horizontal,vertical,vertical,none,none
1c,8,100126,3,2,130,22,O,NA,variable,homogeneous,3,present,0.513235092163086,1,vertical,vertical,1,1.08234484330663,red,3,1,545.621167183745,582.212099195248,911.784642431215,829.192481806288,911.784642431215,829.192481806288,942.594190385041,388.595418998464,545.621167183745,582.212099195248,0,0,0,0,0,0,0,0,4,NaN,NaN,NaN,horizontal,horizontal,vertical,none,none,none
1c,8,100126,3,3,131,22,O,NA,variable,homogeneous,6,present,0.560415983200073,1,vertical,vertical,1,0.83529016746665,red,4,5,927.5,379.163522034968,672.5,379.163522034968,672.5,820.836477965032,927.5,820.836477965032,1055,600,927.5,379.163522034968,672.5,379.163522034968,545,600,0,0,0,4,0,0,vertical,horizontal,horizontal,vertical,horizontal,vertical
1c,8,100126,3,4,132,22,O,NA,variable,homogeneous,3,absent,0.559417009353638,1,vertical,vertical,1,0.78823213397332,red,3,NaN,746.982518841471,350.57236181288,NaN,NaN,610.498069503264,770.628304621509,1042.51941165526,678.799333565612,746.982518841471,350.57236181288,0,0,0,0,0,0,0,0,4,NaN,NaN,NaN,vertical,vertical,vertical,none,none,none
1c,8,100126,3,5,133,22,O,NA,variable,homogeneous,3,present,0.653779029846191,1,vertical,vertical,1,0.74117410047999,green,2,1,1034.72873763037,699.636437764765,596.34794493794,753.462830903772,596.34794493794,753.462830903772,1034.72873763037,699.636437764765,768.923317431687,346.900731331463,0,0,0,0,0,0,0,4,0,NaN,NaN,NaN,vertical,vertical,vertical,none,none,none
1c,8,100126,3,6,134,22,O,NA,variable,homogeneous,5,absent,0.667150974273682,1,vertical,vertical,1,1.02352230143997,red,1,NaN,777.775285599347,854.029648013395,NaN,NaN,777.775285599347,854.029648013395,1034.72873763037,699.636437764765,967.295052392579,407.549057043193,668.665290897936,381.422338320961,551.535633479765,657.362518857686,0,0,4,0,0,0,0,NaN,vertical,horizontal,vertical,vertical,vertical,none
1c,8,100126,3,7,135,22,O,NA,variable,homogeneous,3,absent,0.766618967056274,1,horizontal,horizontal,1,0.894112709333312,green,1,NaN,989.501930496736,770.628304621509,NaN,NaN,989.501930496736,770.628304621509,853.017481158529,350.57236181288,557.480588344736,678.799333565612,0,0,0,0,0,0,4,0,0,NaN,NaN,NaN,horizontal,vertical,vertical,none,none,none
1c,8,100126,3,8,136,22,O,NA,variable,homogeneous,3,present,0.669297933578491,1,horizontal,horizontal,1,0.752938608853322,red,2,1,1025.15163617903,719.715248510402,583.747735480111,735.129412379467,583.747735480111,735.129412379467,1025.15163617903,719.715248510402,791.100628340862,345.155339110131,0,0,0,0,0,0,0,4,0,NaN,NaN,NaN,horizontal,horizontal,horizontal,none,none,none
1c,8,100126,3,9,137,22,O,NA,variable,homogeneous,4,absent,0.716269016265869,1,vertical,vertical,1,1.0705803349333,red,2,NaN,1032.95409169886,703.717843984329,NaN,NaN,696.282156015671,832.954091698863,1032.95409169886,703.717843984329,903.717843984329,367.045908301137,567.045908301137,496.282156015671,0,0,0,0,0,4,0,0,NaN,NaN,horizontal,vertical,horizontal,vertical,none,none
1c,8,100126,3,10,138,22,O,NA,variable,homogeneous,3,present,0.531708002090454,1,vertical,vertical,1,0.64705803349333,green,1,3,874.554784704298,843.857712770574,551.535633479765,542.637481142314,874.554784704298,843.857712770574,973.909581815937,413.504806087112,551.535633479765,542.637481142314,0,0,0,0,0,0,4,0,0,NaN,NaN,NaN,vertical,vertical,horizontal,none,none,none
1c,8,100126,3,11,139,22,O,NA,variable,homogeneous,3,absent,0.747025966644287,1,vertical,vertical,1,0.811761150719984,green,2,NaN,1000.94274216971,443.006323791957,NaN,NaN,835.489140744817,852.518357529101,1000.94274216971,443.006323791957,563.568117085469,504.475318678942,0,0,0,0,0,0,0,4,0,NaN,NaN,NaN,vertical,vertical,horizontal,none,none,none
1c,8,100126,3,12,140,22,O,NA,variable,homogeneous,3,absent,0.849061012268066,1,horizontal,horizontal,1,0.952935251199974,red,3,NaN,548.874022981887,555.719714694933,NaN,NaN,887.215136548046,839.621618300407,963.910840470068,404.658667004661,548.874022981887,555.719714694933,0,0,0,0,0,0,0,0,4,NaN,NaN,NaN,vertical,vertical,horizontal,none,none,none
1c,8,100126,3,13,141,22,O,NA,variable,homogeneous,6,absent,0.744207143783569,1,vertical,vertical,1,1.09410935167996,green,6,NaN,613.504806087112,773.909581815937,NaN,NaN,857.362518857686,848.464366520235,1043.85771277057,674.554784704298,986.495193912888,426.090418184063,742.637481142314,351.535633479765,556.142287229426,525.445215295702,613.504806087112,773.909581815937,0,0,0,0,0,4,vertical,horizontal,horizontal,vertical,horizontal,vertical
1c,8,100126,3,14,142,22,O,NA,variable,homogeneous,3,present,0.532056093215942,1,horizontal,horizontal,1,1.0352868098133,red,2,3,1052.5183575291,564.510859255183,643.006323791957,399.057257830286,704.475318678942,836.431882914531,1052.5183575291,564.510859255183,643.006323791957,399.057257830286,0,0,0,0,0,0,0,4,0,NaN,NaN,NaN,vertical,horizontal,vertical,none,none,none
1c,8,100126,3,15,143,22,O,NA,variable,homogeneous,3,present,0.484389066696167,0,vertical,horizontal,1,0.882348200959979,red,1,2,668.665290897936,818.577661679039,1054.96116226488,604.450363641507,668.665290897936,818.577661679039,1054.96116226488,604.450363641507,676.373546837184,376.971974679454,0,0,0,0,0,0,4,0,0,NaN,NaN,NaN,vertical,vertical,vertical,none,none,none
1c,8,100126,3,16,144,22,O,NA,variable,homogeneous,5,present,0.671770811080933,1,horizontal,horizontal,1,1.0705803349333,red,3,2,1034.72873763037,500.363562235235,967.295052392579,792.450942956807,668.665290897936,818.577661679039,967.295052392579,792.450942956807,1034.72873763037,500.363562235235,777.775285599347,345.970351986605,551.535633479765,542.637481142314,0,0,0,0,4,0,0,NaN,horizontal,vertical,horizontal,horizontal,vertical,none
1c,8,100126,3,17,145,22,O,NA,variable,homogeneous,6,present,0.448961019515991,1,horizontal,horizontal,1,0.964699759573307,red,2,6,935.129412379467,816.252264519889,545.155339110131,608.899371659138,680.284751489598,825.151636179026,935.129412379467,816.252264519889,1054.84466088987,591.100628340862,919.715248510402,374.848363820974,664.870587620533,383.747735480111,545.155339110131,608.899371659138,0,4,0,0,0,0,vertical,horizontal,vertical,vertical,horizontal,vertical
1c,8,100126,3,18,146,22,O,NA,variable,homogeneous,4,absent,0.488737106323242,1,horizontal,horizontal,1,0.74117410047999,red,1,NaN,960.476699717708,798.172220171528,NaN,NaN,960.476699717708,798.172220171528,998.172220171528,439.523300282291,639.523300282292,401.827779828472,601.827779828472,760.476699717708,0,0,0,0,4,0,0,0,NaN,NaN,horizontal,vertical,vertical,vertical,none,none
1c,8,100126,3,19,147,22,O,NA,variable,homogeneous,6,absent,0.559330940246582,0,horizontal,vertical,1,0.83529016746665,red,2,NaN,1020.83647796503,727.5,NaN,NaN,800,855,1020.83647796503,727.5,1020.83647796503,472.5,800,345,579.163522034968,472.5,579.163522034968,727.5,0,4,0,0,0,0,horizontal,horizontal,horizontal,horizontal,horizontal,vertical
1c,8,100126,3,20,148,22,O,NA,variable,homogeneous,4,present,0.633377075195312,1,horizontal,horizontal,1,0.929406234453309,green,1,3,692.232343256122,831.108485694346,907.767656743878,368.891514305654,692.232343256122,831.108485694346,1031.10848569435,707.767656743878,907.767656743878,368.891514305654,568.891514305654,492.232343256122,0,0,0,0,4,0,0,0,NaN,NaN,horizontal,vertical,horizontal,vertical,none,none
1c,8,100126,3,21,149,22,O,NA,variable,homogeneous,4,present,0.742383003234863,1,vertical,vertical,1,1.02352230143997,red,4,1,560.378381699593,512.784863451954,712.784863451954,839.621618300407,712.784863451954,839.621618300407,1039.62161830041,687.215136548046,887.215136548046,360.378381699593,560.378381699593,512.784863451954,0,0,0,0,0,0,0,4,NaN,NaN,vertical,horizontal,horizontal,vertical,none,none
1c,8,100126,3,22,150,22,O,NA,variable,homogeneous,3,present,0.552819967269897,1,horizontal,horizontal,1,0.764703117226655,green,2,3,1052.5183575291,635.489140744817,704.475318678942,363.568117085469,643.006323791957,800.942742169714,1052.5183575291,635.489140744817,704.475318678942,363.568117085469,0,0,0,0,0,0,0,4,0,NaN,NaN,NaN,horizontal,horizontal,vertical,none,none,none
1c,8,100126,3,23,151,22,O,NA,variable,homogeneous,5,absent,0.476384878158569,1,horizontal,horizontal,1,0.799996642346652,green,5,NaN,554.878267535729,529.712474266665,NaN,NaN,657.405809614959,811.404581001536,956.993676208043,800.942742169714,1039.62161830041,512.784863451954,791.100628340862,345.155339110131,554.878267535729,529.712474266665,0,0,0,0,0,0,4,NaN,vertical,horizontal,horizontal,vertical,horizontal,none
1c,8,100126,3,24,152,22,O,NA,variable,homogeneous,5,absent,0.542961120605469,1,vertical,vertical,1,0.658822541866662,red,2,NaN,1048.46436652023,542.637481142314,NaN,NaN,931.334709102064,818.577661679039,1048.46436652023,542.637481142314,822.224714400653,345.970351986605,565.271262369628,500.363562235235,632.704947607421,792.450942956807,0,0,0,4,0,0,0,NaN,horizontal,vertical,vertical,vertical,vertical,none
1c,8,100126,3,25,153,22,O,NA,variable,homogeneous,4,present,0.448486089706421,1,horizontal,horizontal,1,0.917641726079977,red,4,2,546.39691668109,573.345241866748,1053.60308331891,626.654758133252,773.345241866748,853.60308331891,1053.60308331891,626.654758133252,826.654758133252,346.39691668109,546.39691668109,573.345241866748,0,0,0,0,0,0,0,4,NaN,NaN,horizontal,horizontal,horizontal,horizontal,none,none
1c,8,100126,3,26,154,22,O,NA,variable,homogeneous,6,present,1.32518100738525,1,vertical,vertical,1,0.976464267946639,green,1,5,700.363562235235,834.728737630372,646.537169096228,396.34794493794,700.363562235235,834.728737630372,953.462830903772,803.65205506206,1053.09926866854,568.923317431687,899.636437764765,365.271262369628,646.537169096228,396.34794493794,546.900731331463,631.076682568313,4,0,0,0,0,0,vertical,horizontal,horizontal,horizontal,vertical,vertical
1c,8,100126,3,27,155,22,O,NA,variable,homogeneous,5,present,0.826179027557373,1,horizontal,horizontal,1,0.905877217706644,red,2,4,949.885239334581,806.299333565612,800,345,650.114760665419,806.299333565612,949.885239334581,806.299333565612,1042.51941165526,521.200666434388,800,345,557.480588344736,521.200666434388,0,0,0,4,0,0,0,NaN,vertical,horizontal,vertical,vertical,horizontal,none
1c,8,100126,3,28,156,22,O,NA,variable,homogeneous,3,absent,0.630769968032837,1,vertical,vertical,1,0.999993284693304,red,1,NaN,1008.88377129369,746.261991269517,NaN,NaN,1008.88377129369,746.261991269517,822.224714400653,345.970351986605,568.891514305654,707.767656743878,0,0,0,0,0,0,4,0,0,NaN,NaN,NaN,vertical,vertical,vertical,none,none,none
1c,8,100126,3,29,157,22,O,NA,variable,homogeneous,4,absent,0.692834854125977,1,horizontal,horizontal,1,1.0705803349333,green,1,NaN,619.68777079743,780.31222920257,NaN,NaN,619.68777079743,780.31222920257,980.31222920257,780.31222920257,980.31222920257,419.68777079743,619.68777079743,419.68777079743,0,0,0,0,4,0,0,0,NaN,NaN,horizontal,vertical,vertical,horizontal,none,none
1c,8,100126,3,30,158,22,O,NA,variable,homogeneous,4,present,0.638308048248291,1,horizontal,horizontal,1,0.764703117226655,red,2,4,1032.95409169886,703.717843984329,567.045908301137,496.282156015671,696.282156015671,832.954091698863,1032.95409169886,703.717843984329,903.717843984329,367.045908301137,567.045908301137,496.282156015671,0,0,0,0,0,4,0,0,NaN,NaN,horizontal,horizontal,vertical,vertical,none,none
1c,8,100126,3,31,159,22,O,NA,variable,homogeneous,5,present,0.668478965759277,1,horizontal,horizontal,1,0.858819184213314,green,5,4,643.006323791957,800.942742169714,560.378381699593,512.784863451954,942.594190385041,811.404581001536,1045.12173246427,529.712474266665,808.899371659138,345.155339110131,560.378381699593,512.784863451954,643.006323791957,800.942742169714,0,0,0,0,0,0,4,NaN,vertical,horizontal,vertical,horizontal,horizontal,none
1c,8,100126,3,32,160,22,O,NA,variable,homogeneous,6,present,0.623813152313232,1,vertical,vertical,1,0.894112709333312,green,2,6,1025.15163617903,719.715248510402,583.747735480111,735.129412379467,808.899371659138,854.844660889869,1025.15163617903,719.715248510402,1016.25226451989,464.870587620533,791.100628340862,345.155339110131,574.848363820974,480.284751489598,583.747735480111,735.129412379467,0,4,0,0,0,0,horizontal,vertical,vertical,horizontal,vertical,vertical
1c,8,100126,3,33,161,22,O,NA,variable,homogeneous,5,present,0.718462944030762,1,vertical,vertical,1,1.09410935167996,green,1,3,804.450363641507,854.96116226488,946.261991269517,391.116228706307,804.450363641507,854.96116226488,1043.85771277057,674.554784704298,946.261991269517,391.116228706307,646.537169096228,396.34794493794,558.892763222174,683.019879386575,0,0,4,0,0,0,0,NaN,vertical,horizontal,horizontal,horizontal,vertical,none
1c,8,100126,3,34,162,22,O,NA,variable,homogeneous,5,absent,0.554125070571899,1,horizontal,horizontal,1,1.05881582655997,red,2,NaN,1051.86052685176,560.109211414741,NaN,NaN,915.767577433584,827.206663668034,1051.86052685176,560.109211414741,839.890788585259,348.13947314824,572.793336331966,484.232422566416,619.68777079743,780.31222920257,0,0,0,4,0,0,0,NaN,vertical,horizontal,horizontal,vertical,vertical,none
1c,8,100126,3,35,163,22,O,NA,variable,homogeneous,5,absent,0.476993083953857,0,vertical,horizontal,1,0.976464267946639,green,2,NaN,1051.12597701811,644.280285305067,NaN,NaN,835.489140744817,852.518357529101,1051.12597701811,644.280285305067,919.715248510402,374.848363820974,622.862115532956,416.568350913644,570.807518193712,711.784642431215,0,0,0,4,0,0,0,NaN,vertical,vertical,horizontal,vertical,vertical,none
1c,8,100126,3,36,164,22,O,NA,variable,homogeneous,5,present,0.473864078521729,1,vertical,vertical,1,0.952935251199974,red,1,3,946.261991269517,808.883771293693,804.450363641507,345.03883773512,946.261991269517,808.883771293693,1043.85771277057,525.445215295702,804.450363641507,345.03883773512,558.892763222174,516.980120613425,646.537169096228,803.65205506206,0,0,4,0,0,0,0,NaN,vertical,vertical,vertical,horizontal,horizontal,none
1c,8,100126,3,37,165,22,O,NA,variable,homogeneous,5,absent,0.775043964385986,1,horizontal,horizontal,1,0.776467625599987,red,3,NaN,915.767577433584,372.793336331966,NaN,NaN,839.890788585259,851.86052685176,1051.86052685176,639.890788585259,915.767577433584,372.793336331966,619.68777079743,419.68777079743,572.793336331966,715.767577433584,0,0,0,0,4,0,0,NaN,vertical,horizontal,horizontal,vertical,vertical,none
1c,8,100126,3,38,166,22,O,NA,variable,homogeneous,5,absent,0.576873064041138,1,vertical,vertical,1,0.905877217706644,green,3,NaN,831.076682568313,346.900731331463,NaN,NaN,923.626453162816,823.028025320546,1050.31493177915,551.343706178981,831.076682568313,346.900731331463,568.891514305654,492.232343256122,626.090418184063,786.495193912888,0,0,0,0,4,0,0,NaN,vertical,horizontal,vertical,vertical,horizontal,none
1c,8,100126,3,39,167,22,O,NA,variable,homogeneous,6,absent,0.773580074310303,1,vertical,vertical,1,0.64705803349333,red,2,NaN,1051.12597701811,644.280285305067,NaN,NaN,887.215136548046,839.621618300407,1051.12597701811,644.280285305067,963.910840470068,404.658667004661,712.784863451954,360.378381699593,548.874022981887,555.719714694933,636.089159529932,795.341332995339,0,4,0,0,0,0,horizontal,vertical,horizontal,horizontal,horizontal,vertical
1c,8,100126,3,40,168,22,O,NA,variable,homogeneous,6,absent,0.642843008041382,1,horizontal,horizontal,1,1.08234484330663,green,5,NaN,639.523300282292,401.827779828472,NaN,NaN,708.616172865948,838.063008756786,960.476699717708,798.172220171528,1051.86052685176,560.109211414741,891.383827134052,361.936991243214,639.523300282292,401.827779828472,548.13947314824,639.890788585259,0,0,0,0,4,0,vertical,horizontal,vertical,horizontal,horizontal,horizontal
1c,8,100126,3,41,169,22,O,NA,variable,homogeneous,4,absent,0.612259149551392,1,horizontal,horizontal,1,0.823525659093317,green,2,NaN,980.31222920257,419.68777079743,NaN,NaN,980.31222920257,780.31222920257,980.31222920257,419.68777079743,619.68777079743,419.68777079743,619.68777079743,780.31222920257,0,0,0,0,0,4,0,0,NaN,NaN,vertical,horizontal,vertical,vertical,none,none
1c,8,100126,3,42,170,22,O,NA,variable,homogeneous,6,present,0.457782983779907,1,horizontal,horizontal,1,1.05881582655997,red,1,4,861.690083377915,847.425410200379,738.309916622085,352.574589799621,861.690083377915,847.425410200379,1045.12173246427,670.287525733335,983.431649086356,422.862115532956,738.309916622085,352.574589799621,554.878267535729,529.712474266665,616.568350913644,777.137884467044,4,0,0,0,0,0,horizontal,horizontal,vertical,vertical,horizontal,vertical
1c,8,100126,3,43,171,22,O,NA,variable,homogeneous,6,absent,0.589237928390503,1,vertical,vertical,1,0.894112709333312,green,1,NaN,760.109211414741,851.86052685176,NaN,NaN,760.109211414741,851.86052685176,998.172220171528,760.476699717708,1038.06300875679,508.616172865948,839.890788585259,348.13947314824,601.827779828472,439.523300282291,561.936991243214,691.383827134052,4,0,0,0,0,0,vertical,horizontal,horizontal,vertical,vertical,horizontal
1c,8,100126,3,44,172,22,O,NA,variable,homogeneous,3,absent,0.487226009368896,1,horizontal,horizontal,1,0.894112709333312,red,1,NaN,844.280285305067,851.125977018113,NaN,NaN,844.280285305067,851.125977018113,995.341332995339,436.089159529932,560.378381699593,512.784863451954,0,0,0,0,0,0,4,0,0,NaN,NaN,NaN,horizontal,horizontal,horizontal,none,none,none
1c,8,100126,3,45,173,22,O,NA,variable,homogeneous,5,present,0.485797166824341,1,vertical,vertical,1,1.0352868098133,green,1,2,676.373546837184,823.028025320546,973.909581815937,786.495193912888,676.373546837184,823.028025320546,973.909581815937,786.495193912888,1031.10848569435,492.232343256122,768.923317431687,346.900731331463,549.685068220846,551.343706178981,0,0,4,0,0,0,0,NaN,vertical,vertical,horizontal,horizontal,horizontal,none
1c,8,100126,3,46,174,22,O,NA,variable,homogeneous,5,present,0.523815870285034,1,horizontal,horizontal,1,0.811761150719984,green,4,1,610.498069503264,429.371695378491,853.017481158529,849.42763818712,853.017481158529,849.42763818712,1053.60308331891,626.654758133252,903.717843984329,367.045908301137,610.498069503264,429.371695378491,579.163522034968,727.5,0,0,0,0,0,4,0,NaN,vertical,horizontal,vertical,horizontal,horizontal,none
1c,8,100126,3,47,175,22,O,NA,variable,homogeneous,3,present,0.570926189422607,1,horizontal,horizontal,1,0.623529016746665,green,2,1,907.767656743878,368.891514305654,946.261991269517,808.883771293693,946.261991269517,808.883771293693,907.767656743878,368.891514305654,545.970351986605,622.224714400653,0,0,0,0,0,0,0,4,0,NaN,NaN,NaN,vertical,horizontal,vertical,none,none,none
1c,8,100126,3,48,176,22,O,NA,variable,homogeneous,4,absent,0.528221845626831,1,horizontal,horizontal,1,1.08234484330663,red,1,NaN,977.137884467044,783.431649086356,NaN,NaN,977.137884467044,783.431649086356,983.431649086356,422.862115532956,622.862115532956,416.568350913644,616.568350913644,777.137884467044,0,0,0,0,4,0,0,0,NaN,NaN,horizontal,horizontal,vertical,vertical,none,none
1c,8,100126,3,49,177,22,O,NA,variable,homogeneous,6,absent,0.478957891464233,1,horizontal,horizontal,1,1.01175779306664,red,2,NaN,1020.83647796503,727.5,NaN,NaN,800,855,1020.83647796503,727.5,1020.83647796503,472.5,800,345,579.163522034968,472.5,579.163522034968,727.5,0,4,0,0,0,0,horizontal,horizontal,horizontal,horizontal,vertical,horizontal
1c,8,100126,3,50,178,22,O,NA,variable,homogeneous,6,present,0.895684003829956,1,horizontal,horizontal,1,0.74117410047999,green,3,1,1029.19248180629,488.215357568785,782.212099195248,854.378832816255,782.212099195248,854.378832816255,1011.40458100154,742.594190385041,1029.19248180629,488.215357568785,817.787900804752,345.621167183745,588.595418998464,457.40580961496,570.807518193712,711.784642431215,0,0,4,0,0,0,horizontal,horizontal,horizontal,horizontal,vertical,horizontal
1c,8,100126,3,51,179,22,O,NA,variable,homogeneous,3,absent,1.00298810005188,1,vertical,vertical,1,0.658822541866662,green,2,NaN,1047.42541020038,538.309916622085,NaN,NaN,729.712474266665,845.121732464271,1047.42541020038,538.309916622085,622.862115532956,416.568350913644,0,0,0,0,0,0,0,4,0,NaN,NaN,NaN,horizontal,vertical,vertical,none,none,none
1c,8,100126,3,52,180,22,O,NA,variable,homogeneous,6,absent,0.631169080734253,1,horizontal,horizontal,1,0.6,green,5,NaN,599.057257830286,443.006323791957,NaN,NaN,764.510859255183,852.518357529101,1000.94274216971,756.993676208043,1036.43188291453,504.475318678942,835.489140744817,347.4816424709,599.057257830286,443.006323791957,563.568117085469,695.524681321058,0,0,0,0,4,0,vertical,vertical,horizontal,vertical,horizontal,vertical
1c,8,100126,3,53,181,22,O,NA,variable,homogeneous,4,absent,0.809305906295776,1,vertical,vertical,1,0.858819184213314,green,1,NaN,923.626453162816,823.028025320546,NaN,NaN,923.626453162816,823.028025320546,1023.02802532055,476.373546837184,676.373546837184,376.971974679454,576.971974679454,723.626453162816,0,0,0,0,4,0,0,0,NaN,NaN,vertical,horizontal,horizontal,vertical,none,none
1c,8,100126,3,54,182,22,O,NA,variable,homogeneous,5,present,1.01903200149536,1,vertical,vertical,1,1.08234484330663,red,2,5,1046.31108570371,534.001143498857,639.523300282292,798.172220171528,938.882953928832,813.860994826083,1046.31108570371,534.001143498857,813.345668841951,345.349468637584,561.936991243214,508.616172865948,639.523300282292,798.172220171528,0,0,0,4,0,0,0,NaN,vertical,vertical,horizontal,vertical,horizontal,none
1c,8,100126,3,55,183,22,O,NA,variable,homogeneous,4,absent,0.562209129333496,1,vertical,vertical,1,0.729409592106657,green,1,NaN,883.019879386575,841.107236777826,NaN,NaN,883.019879386575,841.107236777826,1041.10723677783,516.980120613425,716.980120613425,358.892763222174,558.892763222174,683.019879386575,0,0,0,0,4,0,0,0,NaN,NaN,vertical,vertical,vertical,horizontal,none,none
1c,8,100126,3,56,184,22,O,NA,variable,homogeneous,4,present,0.544287919998169,1,horizontal,horizontal,1,0.74117410047999,green,3,1,935.129412379467,383.747735480111,664.870587620533,816.252264519889,664.870587620533,816.252264519889,1016.25226451989,735.129412379467,935.129412379467,383.747735480111,583.747735480111,464.870587620533,0,0,0,0,0,0,4,0,NaN,NaN,vertical,horizontal,horizontal,vertical,none,none
1c,8,100126,3,57,185,22,O,NA,variable,homogeneous,4,present,0.72748589515686,1,vertical,vertical,1,0.6,green,4,3,546.39691668109,626.654758133252,773.345241866748,346.39691668109,826.654758133252,853.60308331891,1053.60308331891,573.345241866748,773.345241866748,346.39691668109,546.39691668109,626.654758133252,0,0,0,0,0,0,0,4,NaN,NaN,vertical,horizontal,vertical,vertical,none,none
1c,8,100126,3,58,186,22,O,NA,variable,homogeneous,5,absent,0.592041015625,1,horizontal,horizontal,1,0.894112709333312,green,1,NaN,712.784863451954,839.621618300407,NaN,NaN,712.784863451954,839.621618300407,1000.94274216971,756.993676208043,1011.40458100154,457.40580961496,729.712474266665,354.878267535729,545.155339110131,591.100628340862,0,0,4,0,0,0,0,NaN,horizontal,horizontal,vertical,vertical,vertical,none
1c,8,100126,3,59,187,22,O,NA,variable,homogeneous,6,present,0.489929914474487,1,vertical,vertical,1,1.09410935167996,red,3,6,977.137884467044,416.568350913644,622.862115532956,783.431649086356,870.287525733335,845.121732464271,1047.42541020038,661.690083377915,977.137884467044,416.568350913644,729.712474266665,354.878267535729,552.574589799621,538.309916622085,622.862115532956,783.431649086356,0,0,4,0,0,0,horizontal,horizontal,vertical,vertical,vertical,vertical
1c,8,100126,3,60,188,22,O,NA,variable,homogeneous,4,present,0.688560962677002,1,vertical,vertical,1,0.83529016746665,red,1,4,800,855,545,600,800,855,1055,600,800,345,545,600,0,0,0,0,4,0,0,0,NaN,NaN,vertical,horizontal,vertical,vertical,none,none
1c,8,100126,3,61,189,22,O,NA,variable,homogeneous,4,present,0.663985967636108,1,vertical,vertical,1,0.682351558613327,green,1,4,953.462830903772,803.65205506206,596.34794493794,753.462830903772,953.462830903772,803.65205506206,1003.65205506206,446.537169096228,646.537169096228,396.34794493794,596.34794493794,753.462830903772,0,0,0,0,4,0,0,0,NaN,NaN,vertical,vertical,horizontal,vertical,none,none
1c,8,100126,3,62,190,22,O,NA,variable,homogeneous,6,present,0.683346033096313,1,horizontal,horizontal,1,0.894112709333312,green,6,2,591.116228706307,746.261991269517,1031.10848569435,707.767656743878,822.224714400653,854.029648013395,1031.10848569435,707.767656743878,1008.88377129369,453.738008730483,777.775285599347,345.970351986605,568.891514305654,492.232343256122,591.116228706307,746.261991269517,0,0,0,0,0,4,horizontal,horizontal,vertical,horizontal,horizontal,horizontal
1c,8,100126,3,63,191,22,O,NA,variable,homogeneous,6,absent,0.631198883056641,1,vertical,vertical,1,0.894112709333312,red,3,NaN,963.910840470068,404.658667004661,NaN,NaN,887.215136548046,839.621618300407,1051.12597701811,644.280285305067,963.910840470068,404.658667004661,712.784863451954,360.378381699593,548.874022981887,555.719714694933,636.089159529932,795.341332995339,0,0,4,0,0,0,vertical,vertical,vertical,vertical,horizontal,vertical
1c,8,100126,3,64,192,22,O,NA,variable,homogeneous,3,absent,0.758809089660645,1,horizontal,horizontal,1,0.941170742826642,green,2,NaN,891.383827134052,361.936991243214,NaN,NaN,960.476699717708,798.172220171528,891.383827134052,361.936991243214,548.13947314824,639.890788585259,0,0,0,0,0,0,0,4,0,NaN,NaN,NaN,vertical,horizontal,horizontal,none,none,none
1c,8,100126,4,1,193,22,O,NA,variable,homogeneous,3,absent,0.588012933731079,1,horizontal,horizontal,1,1.09410935167996,green,1,NaN,857.362518857686,848.464366520235,NaN,NaN,857.362518857686,848.464366520235,986.495193912888,426.090418184063,556.142287229426,525.445215295702,0,0,0,0,0,0,4,0,0,NaN,NaN,NaN,horizontal,horizontal,vertical,none,none,none
1c,8,100126,4,2,194,22,O,NA,variable,homogeneous,3,present,0.589523077011108,1,horizontal,horizontal,1,0.670587050239995,red,1,3,899.636437764765,834.728737630372,546.900731331463,568.923317431687,899.636437764765,834.728737630372,953.462830903772,396.34794493794,546.900731331463,568.923317431687,0,0,0,0,0,0,4,0,0,NaN,NaN,NaN,horizontal,vertical,vertical,none,none,none
1c,8,100126,4,3,195,22,O,NA,variable,homogeneous,3,absent,0.645121812820435,1,vertical,vertical,1,0.776467625599987,red,3,NaN,729.712474266665,354.878267535729,NaN,NaN,622.862115532956,783.431649086356,1047.42541020038,661.690083377915,729.712474266665,354.878267535729,0,0,0,0,0,0,0,0,4,NaN,NaN,NaN,horizontal,vertical,vertical,none,none,none
1c,8,100126,4,4,196,22,O,NA,variable,homogeneous,6,absent,0.628978967666626,1,horizontal,horizontal,1,0.752938608853322,green,2,NaN,956.993676208043,800.942742169714,NaN,NaN,704.475318678942,836.431882914531,956.993676208043,800.942742169714,1052.5183575291,564.510859255183,895.524681321058,363.568117085469,643.006323791957,399.057257830286,547.481642470899,635.489140744817,0,4,0,0,0,0,horizontal,horizontal,vertical,vertical,horizontal,vertical
1c,8,100126,4,5,197,22,O,NA,variable,homogeneous,4,present,0.707154989242554,1,horizontal,horizontal,1,1.0705803349333,red,2,4,1013.86099482608,461.117046071168,586.139005173917,738.882953928832,938.882953928832,813.860994826083,1013.86099482608,461.117046071168,661.117046071168,386.139005173917,586.139005173917,738.882953928832,0,0,0,0,0,4,0,0,NaN,NaN,vertical,horizontal,horizontal,horizontal,none,none
1c,8,100126,4,6,198,22,O,NA,variable,homogeneous,4,absent,0.708219051361084,1,vertical,vertical,1,0.729409592106657,red,1,NaN,907.767656743878,831.108485694346,NaN,NaN,907.767656743878,831.108485694346,1031.10848569435,492.232343256122,692.232343256122,368.891514305654,568.891514305654,707.767656743878,0,0,0,0,4,0,0,0,NaN,NaN,vertical,horizontal,vertical,vertical,none,none
1c,8,100126,4,7,199,22,O,NA,variable,homogeneous,5,absent,0.673424005508423,1,vertical,vertical,1,0.941170742826642,green,2,NaN,1003.65205506206,753.462830903772,NaN,NaN,716.980120613425,841.107236777826,1003.65205506206,753.462830903772,1008.88377129369,453.738008730483,725.445215295702,356.142287229426,545.03883773512,595.549636358493,0,0,0,4,0,0,0,NaN,vertical,vertical,vertical,vertical,horizontal,none
1c,8,100126,4,8,200,22,O,NA,variable,homogeneous,6,absent,0.520528078079224,1,horizontal,horizontal,1,0.870583692586647,red,6,NaN,583.747735480111,735.129412379467,NaN,NaN,808.899371659138,854.844660889869,1025.15163617903,719.715248510402,1016.25226451989,464.870587620533,791.100628340862,345.155339110131,574.848363820974,480.284751489598,583.747735480111,735.129412379467,0,0,0,0,0,4,horizontal,horizontal,horizontal,vertical,vertical,horizontal
1c,8,100126,4,9,201,22,O,NA,variable,homogeneous,6,absent,0.86027193069458,1,horizontal,horizontal,1,0.658822541866662,red,5,NaN,629.371695378491,410.498069503264,NaN,NaN,721.200666434388,842.519411655264,970.628304621509,789.501930496736,1049.42763818712,546.982518841471,878.799333565612,357.480588344736,629.371695378491,410.498069503264,550.57236181288,653.017481158529,0,0,0,0,4,0,vertical,vertical,vertical,vertical,horizontal,vertical
1c,8,100126,4,10,202,22,O,NA,variable,homogeneous,5,present,0.621599912643433,1,vertical,vertical,1,0.6,green,2,3,1051.12597701811,644.280285305067,919.715248510402,374.848363820974,835.489140744817,852.518357529101,1051.12597701811,644.280285305067,919.715248510402,374.848363820974,622.862115532956,416.568350913644,570.807518193712,711.784642431215,0,0,0,4,0,0,0,NaN,vertical,vertical,horizontal,horizontal,vertical,none
1c,8,100126,4,11,203,22,O,NA,variable,homogeneous,4,present,0.617189884185791,1,vertical,vertical,1,0.964699759573307,red,2,3,1036.43188291453,695.524681321058,895.524681321058,363.568117085469,704.475318678942,836.431882914531,1036.43188291453,695.524681321058,895.524681321058,363.568117085469,563.568117085469,504.475318678942,0,0,0,0,0,4,0,0,NaN,NaN,vertical,vertical,horizontal,horizontal,none,none
1c,8,100126,4,12,204,22,O,NA,variable,homogeneous,4,present,0.461704015731812,1,horizontal,horizontal,1,0.988228776319972,green,2,1,1054.0296480134,622.224714400653,777.775285599347,854.029648013395,777.775285599347,854.029648013395,1054.0296480134,622.224714400653,822.224714400653,345.970351986605,545.970351986605,577.775285599347,0,0,0,0,0,4,0,0,NaN,NaN,vertical,horizontal,vertical,horizontal,none,none
1c,8,100126,4,13,205,22,O,NA,variable,homogeneous,6,absent,1.56051111221313,1,horizontal,horizontal,1,0.870583692586647,green,4,NaN,907.767656743878,368.891514305654,NaN,NaN,692.232343256122,831.108485694346,946.261991269517,808.883771293693,1054.0296480134,577.775285599347,907.767656743878,368.891514305654,653.738008730483,391.116228706307,545.970351986605,622.224714400653,0,0,0,4,0,0,horizontal,vertical,horizontal,horizontal,vertical,horizontal
1c,8,100126,4,14,206,22,O,NA,variable,homogeneous,5,absent,0.693855047225952,1,horizontal,horizontal,1,0.894112709333312,red,2,NaN,1048.46436652023,657.362518857686,NaN,NaN,822.224714400653,854.029648013395,1048.46436652023,657.362518857686,931.334709102064,381.422338320961,632.704947607421,407.549057043193,565.271262369628,699.636437764765,0,0,0,4,0,0,0,NaN,vertical,horizontal,horizontal,horizontal,horizontal,none
1c,8,100126,4,15,207,22,O,NA,variable,homogeneous,3,absent,0.524401903152466,1,vertical,vertical,1,0.823525659093317,green,2,NaN,1023.02802532055,723.626453162816,NaN,NaN,581.422338320961,731.334709102064,1023.02802532055,723.626453162816,795.549636358493,345.03883773512,0,0,0,0,0,0,0,4,0,NaN,NaN,NaN,horizontal,vertical,horizontal,none,none,none
1c,8,100126,4,16,208,22,O,NA,variable,homogeneous,5,absent,0.657692909240723,1,vertical,vertical,1,0.729409592106657,red,2,NaN,1048.46436652023,657.362518857686,NaN,NaN,822.224714400653,854.029648013395,1048.46436652023,657.362518857686,931.334709102064,381.422338320961,632.704947607421,407.549057043193,565.271262369628,699.636437764765,0,0,0,4,0,0,0,NaN,horizontal,vertical,horizontal,horizontal,horizontal,none
1c,8,100126,4,17,209,22,O,NA,variable,homogeneous,6,present,0.538915157318115,1,vertical,vertical,1,0.776467625599987,green,3,2,960.476699717708,401.827779828472,1051.86052685176,639.890788585259,891.383827134052,838.063008756786,1051.86052685176,639.890788585259,960.476699717708,401.827779828472,708.616172865948,361.936991243214,548.13947314824,560.109211414741,639.523300282292,798.172220171528,0,0,4,0,0,0,vertical,horizontal,vertical,vertical,horizontal,vertical
1c,8,100126,4,18,210,22,O,NA,variable,homogeneous,6,absent,0.469460010528564,1,vertical,vertical,1,0.799996642346652,red,2,NaN,1054.0296480134,622.224714400653,NaN,NaN,907.767656743878,831.108485694346,1054.0296480134,622.224714400653,946.261991269517,391.116228706307,692.232343256122,368.891514305654,545.970351986605,577.775285599347,653.738008730483,808.883771293693,0,4,0,0,0,0,vertical,vertical,horizontal,horizontal,horizontal,vertical
1c,8,100126,4,19,211,22,O,NA,variable,homogeneous,5,absent,0.428048849105835,1,vertical,vertical,1,1.04705131818663,green,3,NaN,915.767577433584,372.793336331966,NaN,NaN,839.890788585259,851.86052685176,1051.86052685176,639.890788585259,915.767577433584,372.793336331966,619.68777079743,419.68777079743,572.793336331966,715.767577433584,0,0,0,0,4,0,0,NaN,horizontal,horizontal,vertical,vertical,vertical,none
1c,8,100126,4,20,212,22,O,NA,variable,homogeneous,5,present,0.580559015274048,1,vertical,vertical,1,0.988228776319972,red,4,3,586.139005173917,461.117046071168,865.998856501143,353.688914296288,891.383827134052,838.063008756786,1054.65053136242,586.654331158049,865.998856501143,353.688914296288,586.139005173917,461.117046071168,601.827779828472,760.476699717708,0,0,0,0,0,4,0,NaN,horizontal,vertical,horizontal,vertical,horizontal,none
1c,8,100126,4,21,213,22,O,NA,variable,homogeneous,5,absent,0.631170034408569,1,horizontal,horizontal,1,0.729409592106657,green,2,NaN,1038.06300875679,691.383827134052,NaN,NaN,786.654331158049,854.650531362416,1038.06300875679,691.383827134052,960.476699717708,401.827779828472,661.117046071168,386.139005173917,553.688914296288,665.998856501143,0,0,0,4,0,0,0,NaN,vertical,horizontal,vertical,horizontal,horizontal,none
1c,8,100126,4,22,214,22,O,NA,variable,homogeneous,3,present,0.665573835372925,1,vertical,vertical,1,0.682351558613327,red,3,1,738.309916622085,352.574589799621,616.568350913644,777.137884467044,616.568350913644,777.137884467044,1045.12173246427,670.287525733335,738.309916622085,352.574589799621,0,0,0,0,0,0,0,0,4,NaN,NaN,NaN,horizontal,horizontal,vertical,none,none,none
1c,8,100126,4,23,215,22,O,NA,variable,homogeneous,4,present,0.507107973098755,1,horizontal,horizontal,1,0.823525659093317,green,4,2,545.349468637584,613.345668841951,1054.65053136242,586.654331158049,813.345668841951,854.650531362416,1054.65053136242,586.654331158049,786.654331158049,345.349468637584,545.349468637584,613.345668841951,0,0,0,0,0,0,0,4,NaN,NaN,vertical,horizontal,vertical,horizontal,none,none
1c,8,100126,4,24,216,22,O,NA,variable,homogeneous,4,absent,0.664646863937378,1,horizontal,horizontal,1,0.941170742826642,green,4,NaN,610.498069503264,770.628304621509,NaN,NaN,970.628304621509,789.501930496736,989.501930496736,429.371695378491,629.371695378491,410.498069503264,610.498069503264,770.628304621509,0,0,0,0,0,0,0,4,NaN,NaN,horizontal,horizontal,horizontal,horizontal,none,none
1c,8,100126,4,25,217,22,O,NA,variable,homogeneous,6,absent,0.648496866226196,1,vertical,vertical,1,0.729409592106657,green,4,NaN,777.775285599347,345.970351986605,NaN,NaN,822.224714400653,854.029648013395,1031.10848569435,707.767656743878,1008.88377129369,453.738008730483,777.775285599347,345.970351986605,568.891514305654,492.232343256122,591.116228706307,746.261991269517,0,0,0,4,0,0,horizontal,vertical,horizontal,vertical,vertical,vertical
1c,8,100126,4,26,218,22,O,NA,variable,homogeneous,4,absent,0.635584831237793,1,vertical,vertical,1,0.705880575359992,red,1,NaN,704.475318678942,836.431882914531,NaN,NaN,704.475318678942,836.431882914531,1036.43188291453,695.524681321058,895.524681321058,363.568117085469,563.568117085469,504.475318678942,0,0,0,0,4,0,0,0,NaN,NaN,vertical,horizontal,vertical,vertical,none,none
1c,8,100126,4,27,219,22,O,NA,variable,homogeneous,3,absent,0.480537891387939,1,vertical,vertical,1,0.78823213397332,green,2,NaN,1034.72873763037,500.363562235235,NaN,NaN,768.923317431687,853.099268668537,1034.72873763037,500.363562235235,596.34794493794,446.537169096228,0,0,0,0,0,0,0,4,0,NaN,NaN,NaN,horizontal,vertical,horizontal,none,none,none
1c,8,100126,4,28,220,22,O,NA,variable,homogeneous,3,absent,0.664251089096069,0,horizontal,vertical,1,0.69411606698666,red,2,NaN,1029.19248180629,711.784642431215,NaN,NaN,588.595418998464,742.594190385041,1029.19248180629,711.784642431215,782.212099195248,345.621167183745,0,0,0,0,0,0,0,4,0,NaN,NaN,NaN,horizontal,horizontal,horizontal,none,none,none
1c,8,100126,4,29,221,22,O,NA,variable,homogeneous,5,present,0.779248952865601,1,horizontal,horizontal,1,0.69411606698666,red,1,4,768.923317431687,853.099268668537,676.373546837184,376.971974679454,768.923317431687,853.099268668537,1031.10848569435,707.767656743878,973.909581815937,413.504806087112,676.373546837184,376.971974679454,549.685068220846,648.656293821019,0,0,4,0,0,0,0,NaN,horizontal,vertical,vertical,vertical,vertical,none
1c,8,100126,4,30,222,22,O,NA,variable,homogeneous,6,present,1.17775106430054,1,horizontal,horizontal,1,0.717645083733325,green,3,6,960.476699717708,401.827779828472,639.523300282292,798.172220171528,891.383827134052,838.063008756786,1051.86052685176,639.890788585259,960.476699717708,401.827779828472,708.616172865948,361.936991243214,548.13947314824,560.109211414741,639.523300282292,798.172220171528,0,0,4,0,0,0,horizontal,vertical,horizontal,horizontal,horizontal,vertical
1c,8,100126,4,31,223,22,O,NA,variable,homogeneous,3,present,0.513134002685547,1,horizontal,horizontal,1,0.78823213397332,green,1,2,822.224714400653,854.029648013395,1008.88377129369,453.738008730483,822.224714400653,854.029648013395,1008.88377129369,453.738008730483,568.891514305654,492.232343256122,0,0,0,0,0,0,4,0,0,NaN,NaN,NaN,horizontal,vertical,horizontal,none,none,none
1c,8,100126,4,32,224,22,O,NA,variable,homogeneous,6,present,0.555262088775635,1,horizontal,horizontal,1,0.776467625599987,red,6,1,672.5,820.836477965032,927.5,820.836477965032,927.5,820.836477965032,1055,600,927.5,379.163522034968,672.5,379.163522034968,545,600,672.5,820.836477965032,0,0,0,0,0,4,horizontal,horizontal,horizontal,horizontal,vertical,horizontal
1c,8,100126,4,33,225,22,O,NA,variable,homogeneous,6,present,0.784185886383057,1,horizontal,horizontal,1,0.894112709333312,red,2,4,1047.42541020038,661.690083377915,729.712474266665,354.878267535729,870.287525733335,845.121732464271,1047.42541020038,661.690083377915,977.137884467044,416.568350913644,729.712474266665,354.878267535729,552.574589799621,538.309916622085,622.862115532956,783.431649086356,0,4,0,0,0,0,vertical,horizontal,vertical,horizontal,vertical,vertical
1c,8,100126,4,34,226,22,O,NA,variable,homogeneous,5,present,0.766008853912354,1,horizontal,horizontal,1,0.894112709333312,green,1,3,746.982518841471,849.42763818712,989.501930496736,429.371695378491,746.982518841471,849.42763818712,1020.83647796503,727.5,989.501930496736,429.371695378491,696.282156015671,367.045908301137,546.39691668109,626.654758133252,0,0,4,0,0,0,0,NaN,horizontal,vertical,horizontal,horizontal,horizontal,none
1c,8,100126,4,35,227,22,O,NA,variable,homogeneous,4,absent,0.578965902328491,1,horizontal,horizontal,1,0.682351558613327,green,3,NaN,895.524681321058,363.568117085469,NaN,NaN,704.475318678942,836.431882914531,1036.43188291453,695.524681321058,895.524681321058,363.568117085469,563.568117085469,504.475318678942,0,0,0,0,0,0,4,0,NaN,NaN,vertical,vertical,horizontal,vertical,none,none
1c,8,100126,4,36,228,22,O,NA,variable,homogeneous,5,present,0.625053882598877,1,vertical,vertical,1,0.917641726079977,green,5,3,546.900731331463,631.076682568313,986.495193912888,426.090418184063,751.343706178981,850.314931779154,1023.02802532055,723.626453162816,986.495193912888,426.090418184063,692.232343256122,368.891514305654,546.900731331463,631.076682568313,0,0,0,0,0,0,4,NaN,vertical,horizontal,vertical,horizontal,vertical,none
1c,8,100126,4,37,229,22,O,NA,variable,homogeneous,4,absent,0.872334957122803,0,horizontal,vertical,1,0.717645083733325,red,2,NaN,1055,600,NaN,NaN,800,855,1055,600,800,345,545,600,0,0,0,0,0,4,0,0,NaN,NaN,vertical,horizontal,horizontal,horizontal,none,none
1c,8,100126,4,38,230,22,O,NA,variable,homogeneous,6,present,0.592784881591797,1,vertical,vertical,1,0.941170742826642,green,6,2,547.481642470899,635.489140744817,956.993676208043,800.942742169714,704.475318678942,836.431882914531,956.993676208043,800.942742169714,1052.5183575291,564.510859255183,895.524681321058,363.568117085469,643.006323791957,399.057257830286,547.481642470899,635.489140744817,0,0,0,0,0,4,vertical,horizontal,horizontal,vertical,vertical,vertical
1c,8,100126,4,39,231,22,O,NA,variable,homogeneous,5,present,0.862993001937866,1,horizontal,horizontal,1,0.905877217706644,red,4,5,604.658667004661,436.089159529932,583.747735480111,735.129412379467,861.690083377915,847.425410200379,1054.37883281626,617.787900804752,895.524681321058,363.568117085469,604.658667004661,436.089159529932,583.747735480111,735.129412379467,0,0,0,0,0,4,0,NaN,horizontal,vertical,horizontal,horizontal,vertical,none
1c,8,100126,4,40,232,22,O,NA,variable,homogeneous,3,absent,0.528882026672363,1,horizontal,horizontal,1,1.02352230143997,green,1,NaN,729.712474266665,845.121732464271,NaN,NaN,729.712474266665,845.121732464271,1047.42541020038,538.309916622085,622.862115532956,416.568350913644,0,0,0,0,0,0,4,0,0,NaN,NaN,NaN,horizontal,vertical,vertical,none,none,none
1c,8,100126,4,41,233,22,O,NA,variable,homogeneous,4,present,0.582032918930054,1,vertical,vertical,1,0.717645083733325,red,2,3,1041.10723677783,683.019879386575,883.019879386575,358.892763222174,716.980120613425,841.107236777826,1041.10723677783,683.019879386575,883.019879386575,358.892763222174,558.892763222174,516.980120613425,0,0,0,0,0,4,0,0,NaN,NaN,horizontal,vertical,vertical,vertical,none,none
1c,8,100126,4,42,234,22,O,NA,variable,homogeneous,5,absent,0.648378849029541,1,horizontal,horizontal,1,0.929406234453309,red,1,NaN,777.775285599347,854.029648013395,NaN,NaN,777.775285599347,854.029648013395,1034.72873763037,699.636437764765,967.295052392579,407.549057043193,668.665290897936,381.422338320961,551.535633479765,657.362518857686,0,0,4,0,0,0,0,NaN,horizontal,vertical,vertical,vertical,horizontal,none
1c,8,100126,4,43,235,22,O,NA,variable,homogeneous,4,absent,0.637622117996216,1,vertical,vertical,1,0.799996642346652,green,4,NaN,604.658667004661,436.089159529932,NaN,NaN,636.089159529932,795.341332995339,995.341332995339,763.910840470068,963.910840470068,404.658667004661,604.658667004661,436.089159529932,0,0,0,0,0,0,0,4,NaN,NaN,vertical,vertical,horizontal,vertical,none,none
1c,8,100126,4,44,236,22,O,NA,variable,homogeneous,6,absent,0.751497983932495,1,vertical,vertical,1,1.04705131818663,red,4,NaN,831.076682568313,346.900731331463,NaN,NaN,768.923317431687,853.099268668537,1003.65205506206,753.462830903772,1034.72873763037,500.363562235235,831.076682568313,346.900731331463,596.34794493794,446.537169096228,565.271262369628,699.636437764765,0,0,0,4,0,0,vertical,horizontal,vertical,vertical,vertical,vertical
1c,8,100126,4,45,237,22,O,NA,variable,homogeneous,5,absent,1.27792882919312,0,vertical,horizontal,1,0.74117410047999,red,1,NaN,653.738008730483,808.883771293693,NaN,NaN,653.738008730483,808.883771293693,953.462830903772,803.65205506206,1041.10723677783,516.980120613425,795.549636358493,345.03883773512,556.142287229426,525.445215295702,0,0,4,0,0,0,0,NaN,vertical,horizontal,horizontal,vertical,horizontal,none
1c,8,100126,4,46,238,22,O,NA,variable,homogeneous,4,present,0.539394855499268,1,horizontal,horizontal,1,0.999993284693304,red,1,3,672.5,820.836477965032,927.5,379.163522034968,672.5,820.836477965032,1020.83647796503,727.5,927.5,379.163522034968,579.163522034968,472.5,0,0,0,0,4,0,0,0,NaN,NaN,horizontal,horizontal,vertical,horizontal,none,none
1c,8,100126,4,47,239,22,O,NA,variable,homogeneous,5,absent,0.689043045043945,1,horizontal,horizontal,1,0.941170742826642,green,3,NaN,853.017481158529,350.57236181288,NaN,NaN,903.717843984329,832.954091698863,1053.60308331891,573.345241866748,853.017481158529,350.57236181288,579.163522034968,472.5,610.498069503264,770.628304621509,0,0,0,0,4,0,0,NaN,vertical,horizontal,horizontal,horizontal,horizontal,none
1c,8,100126,4,48,240,22,O,NA,variable,homogeneous,5,present,0.734314918518066,1,horizontal,horizontal,1,0.764703117226655,green,5,3,593.700666434388,749.885239334581,878.799333565612,357.480588344736,878.799333565612,842.519411655264,1055,600,878.799333565612,357.480588344736,593.700666434388,450.114760665419,593.700666434388,749.885239334581,0,0,0,0,0,0,4,NaN,horizontal,horizontal,vertical,horizontal,horizontal,none
1c,8,100126,4,49,241,22,O,NA,variable,homogeneous,6,absent,0.69140887260437,1,vertical,vertical,1,0.717645083733325,green,6,NaN,558.892763222174,683.019879386575,NaN,NaN,751.343706178981,850.314931779154,992.450942956807,767.295052392579,1041.10723677783,516.980120613425,848.656293821019,349.685068220846,607.549057043193,432.704947607421,558.892763222174,683.019879386575,0,0,0,0,0,4,vertical,horizontal,horizontal,horizontal,horizontal,vertical
1c,8,100126,4,50,242,22,O,NA,variable,homogeneous,3,absent,0.635777950286865,1,horizontal,horizontal,1,0.705880575359992,red,1,NaN,923.626453162816,823.028025320546,NaN,NaN,923.626453162816,823.028025320546,931.334709102064,381.422338320961,545.03883773512,595.549636358493,0,0,0,0,0,0,4,0,0,NaN,NaN,NaN,horizontal,vertical,vertical,none,none,none
1c,8,100126,4,51,243,22,O,NA,variable,homogeneous,3,present,0.57497501373291,1,horizontal,horizontal,1,0.717645083733325,green,3,1,613.504806087112,426.090418184063,742.637481142314,848.464366520235,742.637481142314,848.464366520235,1043.85771277057,525.445215295702,613.504806087112,426.090418184063,0,0,0,0,0,0,0,0,4,NaN,NaN,NaN,vertical,horizontal,horizontal,none,none,none
1c,8,100126,4,52,244,22,O,NA,variable,homogeneous,6,present,0.487380027770996,1,horizontal,horizontal,1,0.83529016746665,green,6,3,563.568117085469,695.524681321058,1036.43188291453,504.475318678942,764.510859255183,852.518357529101,1000.94274216971,756.993676208043,1036.43188291453,504.475318678942,835.489140744817,347.4816424709,599.057257830286,443.006323791957,563.568117085469,695.524681321058,0,0,0,0,0,4,vertical,vertical,horizontal,vertical,horizontal,horizontal
1c,8,100126,4,53,245,22,O,NA,variable,homogeneous,4,present,0.699443101882935,1,vertical,vertical,1,0.69411606698666,green,1,2,865.998856501143,846.311085703712,1046.31108570371,534.001143498857,865.998856501143,846.311085703712,1046.31108570371,534.001143498857,734.001143498857,353.688914296288,553.688914296288,665.998856501143,0,0,0,0,4,0,0,0,NaN,NaN,vertical,vertical,horizontal,vertical,none,none
1c,8,100126,4,54,246,22,O,NA,variable,homogeneous,3,present,0.718998908996582,1,vertical,vertical,1,0.882348200959979,red,3,2,650.114760665419,393.700666434388,1053.60308331891,573.345241866748,696.282156015671,832.954091698863,1053.60308331891,573.345241866748,650.114760665419,393.700666434388,0,0,0,0,0,0,0,0,4,NaN,NaN,NaN,horizontal,vertical,vertical,none,none,none
