experiment,subject,uniqueID,block,trial,trial_cumulative,age,gender,color_cond_blocking,color_history,shape_type,set_size,distractor,rt,acc,target_orient,response_key,response_made,iti,target_color,target_item,distractor_item,target_X,target_Y,distractor_X,distractor_Y,item1_X,item1_Y,item2_X,item2_Y,item3_X,item3_Y,item4_X,item4_Y,item5_X,item5_Y,item6_X,item6_Y,item1_shape,item2_shape,item3_shape,item4_shape,item5_shape,item6_shape,item1_line,item2_line,item3_line,item4_line,item5_line,item6_line
1c,9,100149,1,1,1,18,F,NA,variable,homogeneous,4,absent,0.97520899772644,1,horizontal,horizontal,1,0.835291194915772,red,1,NaN,716.980120613425,841.107236777826,NaN,NaN,716.980120613425,841.107236777826,1041.10723677783,683.019879386575,883.019879386575,358.892763222174,558.892763222174,516.980120613425,0,0,0,0,4,0,0,0,NaN,NaN,horizontal,vertical,horizontal,vertical,none,none
1c,9,100149,1,2,2,18,F,NA,variable,homogeneous,5,absent,0.647718906402588,1,vertical,vertical,1,0.858820314407349,green,2,NaN,1046.31108570371,534.001143498857,NaN,NaN,938.882953928832,813.860994826083,1046.31108570371,534.001143498857,813.345668841951,345.349468637584,561.936991243214,508.616172865948,639.523300282292,798.172220171528,0,0,0,4,0,0,0,NaN,horizontal,vertical,horizontal,vertical,vertical,none
1c,9,100149,1,3,3,18,F,NA,variable,homogeneous,6,present,0.746219873428345,0,vertical,horizontal,1,0.858820314407349,red,5,6,653.738008730483,391.116228706307,545.970351986605,622.224714400653,692.232343256122,831.108485694346,946.261991269517,808.883771293693,1054.0296480134,577.775285599347,907.767656743878,368.891514305654,653.738008730483,391.116228706307,545.970351986605,622.224714400653,0,0,0,0,4,0,vertical,horizontal,horizontal,horizontal,vertical,horizontal
1c,9,100149,1,4,4,18,F,NA,variable,homogeneous,3,absent,0.661623001098633,1,vertical,vertical,1,0.835291194915772,green,2,NaN,1053.60308331891,626.654758133252,NaN,NaN,650.114760665419,806.299333565612,1053.60308331891,626.654758133252,696.282156015671,367.045908301137,0,0,0,0,0,0,0,4,0,NaN,NaN,NaN,horizontal,vertical,vertical,none,none,none
1c,9,100149,1,5,5,18,F,NA,variable,homogeneous,5,present,0.967718839645386,1,vertical,vertical,1,0.623529119491577,green,5,3,556.142287229426,674.554784704298,953.462830903772,396.34794493794,795.549636358493,854.96116226488,1041.10723677783,683.019879386575,953.462830903772,396.34794493794,653.738008730483,391.116228706307,556.142287229426,674.554784704298,0,0,0,0,0,0,4,NaN,horizontal,horizontal,vertical,vertical,vertical,none
1c,9,100149,1,6,6,18,F,NA,variable,homogeneous,3,present,0.583755970001221,1,horizontal,horizontal,1,1.02352415084839,red,3,1,729.712474266665,354.878267535729,622.862115532956,783.431649086356,622.862115532956,783.431649086356,1047.42541020038,661.690083377915,729.712474266665,354.878267535729,0,0,0,0,0,0,0,0,4,NaN,NaN,NaN,vertical,horizontal,horizontal,none,none,none
1c,9,100149,1,7,7,18,F,NA,variable,homogeneous,6,absent,0.813153028488159,1,vertical,vertical,1,0.670587358474731,green,2,NaN,1038.06300875679,691.383827134052,NaN,NaN,839.890788585259,851.86052685176,1038.06300875679,691.383827134052,998.172220171528,439.523300282291,760.109211414741,348.13947314824,561.936991243214,508.616172865948,601.827779828472,760.476699717708,0,4,0,0,0,0,vertical,vertical,horizontal,vertical,vertical,horizontal
1c,9,100149,1,8,8,18,F,NA,variable,homogeneous,5,present,0.655380964279175,1,horizontal,horizontal,1,1.09411150932312,green,2,1,1054.0296480134,577.775285599347,899.636437764765,834.728737630372,899.636437764765,834.728737630372,1054.0296480134,577.775285599347,857.362518857686,351.535633479765,581.422338320961,468.665290897936,607.549057043193,767.295052392579,0,0,0,4,0,0,0,NaN,horizontal,horizontal,horizontal,vertical,vertical,none
1c,9,100149,1,9,9,18,F,NA,variable,homogeneous,3,present,0.846037149429321,1,vertical,vertical,1,0.670587358474731,green,3,1,696.282156015671,367.045908301137,650.114760665419,806.299333565612,650.114760665419,806.299333565612,1053.60308331891,626.654758133252,696.282156015671,367.045908301137,0,0,0,0,0,0,0,0,4,NaN,NaN,NaN,horizontal,vertical,vertical,none,none,none
1c,9,100149,1,10,10,18,F,NA,variable,homogeneous,4,present,0.690767049789429,1,vertical,vertical,1,0.976465911865234,green,2,3,1042.51941165526,678.799333565612,878.799333565612,357.480588344736,721.200666434388,842.519411655264,1042.51941165526,678.799333565612,878.799333565612,357.480588344736,557.480588344736,521.200666434388,0,0,0,0,0,4,0,0,NaN,NaN,horizontal,vertical,horizontal,vertical,none,none
1c,9,100149,1,11,11,18,F,NA,variable,homogeneous,3,present,0.710488080978394,1,horizontal,horizontal,1,0.694116477966309,green,3,2,552.574589799621,661.690083377915,870.287525733335,354.878267535729,977.137884467044,783.431649086356,870.287525733335,354.878267535729,552.574589799621,661.690083377915,0,0,0,0,0,0,0,0,4,NaN,NaN,NaN,vertical,horizontal,horizontal,none,none,none
1c,9,100149,1,12,12,18,F,NA,variable,homogeneous,6,absent,0.654589891433716,1,vertical,vertical,1,0.68235191822052,red,3,NaN,1031.10848569435,492.232343256122,NaN,NaN,777.775285599347,854.029648013395,1008.88377129369,746.261991269517,1031.10848569435,492.232343256122,822.224714400653,345.970351986605,591.116228706307,453.738008730483,568.891514305654,707.767656743878,0,0,4,0,0,0,vertical,horizontal,vertical,vertical,vertical,horizontal
1c,9,100149,1,13,13,18,F,NA,variable,homogeneous,4,absent,0.713398218154907,1,vertical,vertical,1,0.882349433898926,green,3,NaN,973.909581815937,413.504806087112,NaN,NaN,626.090418184063,786.495193912888,986.495193912888,773.909581815937,973.909581815937,413.504806087112,613.504806087112,426.090418184063,0,0,0,0,0,0,4,0,NaN,NaN,horizontal,vertical,vertical,horizontal,none,none
1c,9,100149,1,14,14,18,F,NA,variable,homogeneous,4,present,0.755651950836182,1,vertical,vertical,1,0.6,green,3,4,960.476699717708,401.827779828472,601.827779828472,439.523300282291,639.523300282292,798.172220171528,998.172220171528,760.476699717708,960.476699717708,401.827779828472,601.827779828472,439.523300282291,0,0,0,0,0,0,4,0,NaN,NaN,vertical,vertical,vertical,horizontal,none,none
1c,9,100149,1,15,15,18,F,NA,variable,homogeneous,4,present,0.854645013809204,1,horizontal,horizontal,1,0.976465911865234,red,4,3,599.057257830286,443.006323791957,956.993676208043,399.057257830286,643.006323791957,800.942742169714,1000.94274216971,756.993676208043,956.993676208043,399.057257830286,599.057257830286,443.006323791957,0,0,0,0,0,0,0,4,NaN,NaN,horizontal,horizontal,vertical,horizontal,none,none
1c,9,100149,1,16,16,18,F,NA,variable,homogeneous,6,present,0.77836799621582,0,horizontal,vertical,1,0.92940767288208,green,2,3,1047.42541020038,661.690083377915,977.137884467044,416.568350913644,870.287525733335,845.121732464271,1047.42541020038,661.690083377915,977.137884467044,416.568350913644,729.712474266665,354.878267535729,552.574589799621,538.309916622085,622.862115532956,783.431649086356,0,4,0,0,0,0,vertical,horizontal,vertical,vertical,vertical,vertical
1c,9,100149,1,17,17,18,F,NA,variable,homogeneous,3,absent,0.715820074081421,1,vertical,vertical,1,0.905878553390503,green,2,NaN,935.129412379467,383.747735480111,NaN,NaN,919.715248510402,825.151636179026,935.129412379467,383.747735480111,545.155339110131,591.100628340862,0,0,0,0,0,0,0,4,0,NaN,NaN,NaN,vertical,vertical,vertical,none,none,none
1c,9,100149,1,18,18,18,F,NA,variable,homogeneous,3,present,0.68009090423584,1,horizontal,horizontal,1,0.858820314407349,green,2,1,1051.12597701811,555.719714694933,712.784863451954,839.621618300407,712.784863451954,839.621618300407,1051.12597701811,555.719714694933,636.089159529932,404.658667004661,0,0,0,0,0,0,0,4,0,NaN,NaN,NaN,horizontal,horizontal,vertical,none,none,none
1c,9,100149,1,19,19,18,F,NA,variable,homogeneous,4,absent,1.02549600601196,1,vertical,vertical,1,0.988230471611023,red,3,NaN,755.719714694933,348.874022981887,NaN,NaN,844.280285305067,851.125977018113,1051.12597701811,555.719714694933,755.719714694933,348.874022981887,548.874022981887,644.280285305067,0,0,0,0,0,0,4,0,NaN,NaN,horizontal,vertical,vertical,horizontal,none,none
1c,9,100149,1,20,20,18,F,NA,variable,homogeneous,6,present,0.902754068374634,1,vertical,vertical,1,1.02352415084839,red,5,6,545.03883773512,595.549636358493,668.665290897936,818.577661679039,923.626453162816,823.028025320546,1054.96116226488,604.450363641507,931.334709102064,381.422338320961,676.373546837184,376.971974679454,545.03883773512,595.549636358493,668.665290897936,818.577661679039,0,0,0,0,4,0,horizontal,horizontal,horizontal,vertical,vertical,vertical
1c,9,100149,1,21,21,18,F,NA,variable,homogeneous,4,absent,0.677773952484131,1,horizontal,horizontal,1,1.04705327033997,red,2,NaN,1043.85771277057,525.445215295702,NaN,NaN,874.554784704298,843.857712770574,1043.85771277057,525.445215295702,725.445215295702,356.142287229426,556.142287229426,674.554784704298,0,0,0,0,0,4,0,0,NaN,NaN,vertical,horizontal,vertical,vertical,none,none
1c,9,100149,1,22,22,18,F,NA,variable,homogeneous,4,present,0.902253150939941,1,horizontal,horizontal,1,0.741174716949463,green,3,4,915.767577433584,372.793336331966,572.793336331966,484.232422566416,684.232422566416,827.206663668034,1027.20666366803,715.767577433584,915.767577433584,372.793336331966,572.793336331966,484.232422566416,0,0,0,0,0,0,4,0,NaN,NaN,horizontal,horizontal,horizontal,vertical,none,none
1c,9,100149,1,23,23,18,F,NA,variable,homogeneous,3,absent,0.805444002151489,1,vertical,vertical,1,1.04705327033997,red,1,NaN,688.215357568785,829.192481806288,NaN,NaN,688.215357568785,829.192481806288,1054.37883281626,582.212099195248,657.405809614959,388.595418998464,0,0,0,0,0,0,4,0,0,NaN,NaN,NaN,vertical,horizontal,vertical,none,none,none
1c,9,100149,1,24,24,18,F,NA,variable,homogeneous,5,present,1.17098689079285,1,horizontal,horizontal,1,0.870584874153137,red,2,4,977.137884467044,783.431649086356,764.510859255183,347.4816424709,680.284751489598,825.151636179026,977.137884467044,783.431649086356,1029.19248180629,488.215357568785,764.510859255183,347.4816424709,548.874022981887,555.719714694933,0,0,0,4,0,0,0,NaN,horizontal,horizontal,vertical,horizontal,horizontal,none
1c,9,100149,1,25,25,18,F,NA,variable,homogeneous,6,absent,0.887907028198242,1,horizontal,horizontal,1,1.05881783008575,red,1,NaN,822.224714400653,854.029648013395,NaN,NaN,822.224714400653,854.029648013395,1031.10848569435,707.767656743878,1008.88377129369,453.738008730483,777.775285599347,345.970351986605,568.891514305654,492.232343256122,591.116228706307,746.261991269517,4,0,0,0,0,0,horizontal,horizontal,horizontal,horizontal,vertical,horizontal
1c,9,100149,1,26,26,18,F,NA,variable,homogeneous,4,present,0.84083080291748,1,horizontal,horizontal,1,0.752939276695251,red,1,2,653.738008730483,808.883771293693,1008.88377129369,746.261991269517,653.738008730483,808.883771293693,1008.88377129369,746.261991269517,946.261991269517,391.116228706307,591.116228706307,453.738008730483,0,0,0,0,4,0,0,0,NaN,NaN,horizontal,horizontal,horizontal,vertical,none,none
1c,9,100149,1,27,27,18,F,NA,variable,homogeneous,6,absent,0.671501874923706,1,horizontal,horizontal,1,1.08234694957733,green,3,NaN,977.137884467044,416.568350913644,NaN,NaN,870.287525733335,845.121732464271,1047.42541020038,661.690083377915,977.137884467044,416.568350913644,729.712474266665,354.878267535729,552.574589799621,538.309916622085,622.862115532956,783.431649086356,0,0,4,0,0,0,horizontal,vertical,horizontal,vertical,horizontal,horizontal
1c,9,100149,1,28,28,18,F,NA,variable,homogeneous,4,present,1.37832689285278,1,vertical,vertical,1,0.658822798728943,red,3,2,861.690083377915,352.574589799621,1047.42541020038,661.690083377915,738.309916622085,847.425410200379,1047.42541020038,661.690083377915,861.690083377915,352.574589799621,552.574589799621,538.309916622085,0,0,0,0,0,0,4,0,NaN,NaN,vertical,vertical,vertical,vertical,none,none
1c,9,100149,1,29,29,18,F,NA,variable,homogeneous,4,present,0.670152187347412,1,horizontal,horizontal,1,0.999995031356812,green,3,1,680.284751489598,374.848363820974,919.715248510402,825.151636179026,919.715248510402,825.151636179026,1025.15163617903,480.284751489598,680.284751489598,374.848363820974,574.848363820974,719.715248510402,0,0,0,0,0,0,4,0,NaN,NaN,horizontal,vertical,horizontal,horizontal,none,none
1c,9,100149,1,30,30,18,F,NA,variable,homogeneous,5,present,0.690865039825439,1,vertical,vertical,1,0.752939276695251,green,3,4,870.287525733335,354.878267535729,588.595418998464,457.40580961496,887.215136548046,839.621618300407,1054.84466088987,591.100628340862,870.287525733335,354.878267535729,588.595418998464,457.40580961496,599.057257830286,756.993676208043,0,0,0,0,4,0,0,NaN,vertical,vertical,vertical,horizontal,horizontal,none
1c,9,100149,1,31,31,18,F,NA,variable,homogeneous,4,absent,0.899055957794189,1,vertical,vertical,1,0.905878553390503,green,1,NaN,870.287525733335,845.121732464271,NaN,NaN,870.287525733335,845.121732464271,1045.12173246427,529.712474266665,729.712474266665,354.878267535729,554.878267535729,670.287525733335,0,0,0,0,4,0,0,0,NaN,NaN,vertical,vertical,horizontal,horizontal,none,none
1c,9,100149,1,32,32,18,F,NA,variable,homogeneous,6,present,0.878605842590332,1,vertical,vertical,1,1.08234694957733,green,5,6,568.891514305654,492.232343256122,591.116228706307,746.261991269517,822.224714400653,854.029648013395,1031.10848569435,707.767656743878,1008.88377129369,453.738008730483,777.775285599347,345.970351986605,568.891514305654,492.232343256122,591.116228706307,746.261991269517,0,0,0,0,4,0,vertical,horizontal,vertical,vertical,vertical,horizontal
1c,9,100149,1,33,33,18,F,NA,variable,homogeneous,5,present,0.830229043960571,1,horizontal,horizontal,1,0.894113993644714,red,5,4,604.658667004661,763.910840470068,583.747735480111,464.870587620533,895.524681321058,836.431882914531,1054.37883281626,582.212099195248,861.690083377915,352.574589799621,583.747735480111,464.870587620533,604.658667004661,763.910840470068,0,0,0,0,0,0,4,NaN,vertical,vertical,vertical,horizontal,horizontal,none
1c,9,100149,1,34,34,18,F,NA,variable,homogeneous,6,absent,0.84626293182373,1,vertical,vertical,1,0.76470383644104,green,2,NaN,967.295052392579,792.450942956807,NaN,NaN,716.980120613425,841.107236777826,967.295052392579,792.450942956807,1050.31493177915,551.343706178981,883.019879386575,358.892763222174,632.704947607421,407.549057043193,549.685068220846,648.656293821019,0,4,0,0,0,0,vertical,vertical,vertical,horizontal,horizontal,vertical
1c,9,100149,1,35,35,18,F,NA,variable,homogeneous,3,absent,0.761098861694336,1,vertical,vertical,1,0.68235191822052,red,3,NaN,560.378381699593,687.215136548046,NaN,NaN,995.341332995339,763.910840470068,844.280285305067,348.874022981887,560.378381699593,687.215136548046,0,0,0,0,0,0,0,0,4,NaN,NaN,NaN,vertical,vertical,vertical,none,none,none
1c,9,100149,1,36,36,18,F,NA,variable,homogeneous,6,absent,0.700455904006958,1,horizontal,horizontal,1,0.799997515678406,green,3,NaN,1003.65205506206,446.537169096228,NaN,NaN,831.076682568313,853.099268668537,1034.72873763037,699.636437764765,1003.65205506206,446.537169096228,768.923317431687,346.900731331463,565.271262369628,500.363562235235,596.34794493794,753.462830903772,0,0,4,0,0,0,vertical,vertical,horizontal,horizontal,horizontal,horizontal
1c,9,100149,1,37,37,18,F,NA,variable,homogeneous,3,present,1.42972207069397,1,vertical,vertical,1,0.964701352119446,red,2,1,1046.31108570371,534.001143498857,734.001143498857,846.311085703712,734.001143498857,846.311085703712,1046.31108570371,534.001143498857,619.68777079743,419.68777079743,0,0,0,0,0,0,0,4,0,NaN,NaN,NaN,horizontal,vertical,vertical,none,none,none
1c,9,100149,1,38,38,18,F,NA,variable,homogeneous,3,absent,0.570884943008423,1,horizontal,horizontal,1,1.02352415084839,green,2,NaN,986.495193912888,426.090418184063,NaN,NaN,857.362518857686,848.464366520235,986.495193912888,426.090418184063,556.142287229426,525.445215295702,0,0,0,0,0,0,0,4,0,NaN,NaN,NaN,horizontal,horizontal,vertical,none,none,none
1c,9,100149,1,39,39,18,F,NA,variable,homogeneous,5,absent,0.640216112136841,1,vertical,vertical,1,0.68235191822052,red,2,NaN,998.172220171528,760.476699717708,NaN,NaN,708.616172865948,838.063008756786,998.172220171528,760.476699717708,1013.86099482608,461.117046071168,734.001143498857,353.688914296288,545.349468637584,586.654331158049,0,0,0,4,0,0,0,NaN,horizontal,vertical,vertical,vertical,horizontal,none
1c,9,100149,1,40,40,18,F,NA,variable,homogeneous,6,absent,0.747945785522461,1,horizontal,horizontal,1,0.941172232627869,red,2,NaN,1051.86052685176,639.890788585259,NaN,NaN,891.383827134052,838.063008756786,1051.86052685176,639.890788585259,960.476699717708,401.827779828472,708.616172865948,361.936991243214,548.13947314824,560.109211414741,639.523300282292,798.172220171528,0,4,0,0,0,0,horizontal,horizontal,horizontal,horizontal,vertical,vertical
1c,9,100149,1,41,41,18,F,NA,variable,homogeneous,6,absent,0.785555124282837,1,vertical,vertical,1,0.729410157203674,red,4,NaN,883.019879386575,358.892763222174,NaN,NaN,716.980120613425,841.107236777826,967.295052392579,792.450942956807,1050.31493177915,551.343706178981,883.019879386575,358.892763222174,632.704947607421,407.549057043193,549.685068220846,648.656293821019,0,0,0,4,0,0,horizontal,vertical,vertical,vertical,vertical,horizontal
1c,9,100149,1,42,42,18,F,NA,variable,homogeneous,6,present,0.725295782089233,1,horizontal,horizontal,1,0.999995031356812,red,3,2,935.129412379467,383.747735480111,1054.84466088987,608.899371659138,919.715248510402,825.151636179026,1054.84466088987,608.899371659138,935.129412379467,383.747735480111,680.284751489598,374.848363820974,545.155339110131,591.100628340862,664.870587620533,816.252264519889,0,0,4,0,0,0,horizontal,horizontal,horizontal,vertical,vertical,vertical
1c,9,100149,1,43,43,18,F,NA,variable,homogeneous,5,absent,0.967199087142944,1,vertical,vertical,1,0.741174716949463,red,2,NaN,986.495193912888,773.909581815937,NaN,NaN,692.232343256122,831.108485694346,986.495193912888,773.909581815937,1023.02802532055,476.373546837184,751.343706178981,349.685068220846,546.900731331463,568.923317431687,0,0,0,4,0,0,0,NaN,vertical,vertical,horizontal,horizontal,vertical,none
1c,9,100149,1,44,44,18,F,NA,variable,homogeneous,3,absent,0.939761877059937,0,horizontal,vertical,1,0.858820314407349,green,1,NaN,857.362518857686,848.464366520235,NaN,NaN,857.362518857686,848.464366520235,986.495193912888,426.090418184063,556.142287229426,525.445215295702,0,0,0,0,0,0,4,0,0,NaN,NaN,NaN,horizontal,vertical,horizontal,none,none,none
1c,9,100149,1,45,45,18,F,NA,variable,homogeneous,5,present,0.95102596282959,1,horizontal,horizontal,1,0.811762075424194,green,5,4,553.688914296288,665.998856501143,661.117046071168,386.139005173917,786.654331158049,854.650531362416,1038.06300875679,691.383827134052,960.476699717708,401.827779828472,661.117046071168,386.139005173917,553.688914296288,665.998856501143,0,0,0,0,0,0,4,NaN,horizontal,vertical,horizontal,horizontal,horizontal,none
1c,9,100149,1,46,46,18,F,NA,variable,homogeneous,6,present,1.22775387763977,1,horizontal,horizontal,1,0.882349433898926,green,4,6,764.510859255183,347.4816424709,599.057257830286,756.993676208043,835.489140744817,852.518357529101,1036.43188291453,695.524681321058,1000.94274216971,443.006323791957,764.510859255183,347.4816424709,563.568117085469,504.475318678942,599.057257830286,756.993676208043,0,0,0,4,0,0,horizontal,horizontal,vertical,horizontal,horizontal,vertical
1c,9,100149,1,47,47,18,F,NA,variable,homogeneous,5,absent,0.676512002944946,1,horizontal,horizontal,1,1.0117595911026,red,4,NaN,636.089159529932,404.658667004661,NaN,NaN,817.787900804752,854.378832816255,1047.42541020038,661.690083377915,935.129412379467,383.747735480111,636.089159529932,404.658667004661,563.568117085469,695.524681321058,0,0,0,0,0,4,0,NaN,horizontal,vertical,vertical,horizontal,horizontal,none
1c,9,100149,1,48,48,18,F,NA,variable,homogeneous,3,absent,0.768095970153809,1,horizontal,horizontal,1,0.68235191822052,red,3,NaN,664.870587620533,383.747735480111,NaN,NaN,680.284751489598,825.151636179026,1054.84466088987,591.100628340862,664.870587620533,383.747735480111,0,0,0,0,0,0,0,0,4,NaN,NaN,NaN,vertical,vertical,horizontal,none,none,none
1c,9,100149,1,49,49,18,F,NA,variable,homogeneous,5,present,1.32108211517334,1,vertical,vertical,1,1.07058238983154,red,5,4,546.39691668109,573.345241866748,746.982518841471,350.57236181288,696.282156015671,832.954091698863,989.501930496736,770.628304621509,1020.83647796503,472.5,746.982518841471,350.57236181288,546.39691668109,573.345241866748,0,0,0,0,0,0,4,NaN,vertical,horizontal,horizontal,horizontal,vertical,none
1c,9,100149,1,50,50,18,F,NA,variable,homogeneous,3,present,1.48183608055115,1,vertical,vertical,1,0.717645597457886,green,2,1,946.261991269517,391.116228706307,907.767656743878,831.108485694346,907.767656743878,831.108485694346,946.261991269517,391.116228706307,545.970351986605,577.775285599347,0,0,0,0,0,0,0,4,0,NaN,NaN,NaN,vertical,vertical,vertical,none,none,none
1c,9,100149,1,51,51,18,F,NA,variable,homogeneous,3,absent,0.80820107460022,1,horizontal,horizontal,1,0.811762075424194,red,1,NaN,680.284751489598,825.151636179026,NaN,NaN,680.284751489598,825.151636179026,1054.84466088987,591.100628340862,664.870587620533,383.747735480111,0,0,0,0,0,0,4,0,0,NaN,NaN,NaN,horizontal,vertical,horizontal,none,none,none
1c,9,100149,1,52,52,18,F,NA,variable,homogeneous,5,absent,0.684953927993774,1,horizontal,horizontal,1,1.02352415084839,green,5,NaN,586.139005173917,738.882953928832,NaN,NaN,865.998856501143,846.311085703712,1054.65053136242,613.345668841951,891.383827134052,361.936991243214,601.827779828472,439.523300282291,586.139005173917,738.882953928832,0,0,0,0,0,0,4,NaN,horizontal,vertical,vertical,horizontal,horizontal,none
1c,9,100149,1,53,53,18,F,NA,variable,homogeneous,5,present,0.923859119415283,1,vertical,vertical,1,0.858820314407349,red,2,3,1054.65053136242,586.654331158049,865.998856501143,353.688914296288,891.383827134052,838.063008756786,1054.65053136242,586.654331158049,865.998856501143,353.688914296288,586.139005173917,461.117046071168,601.827779828472,760.476699717708,0,0,0,4,0,0,0,NaN,vertical,vertical,horizontal,horizontal,vertical,none
1c,9,100149,1,54,54,18,F,NA,variable,homogeneous,5,absent,0.72438907623291,1,horizontal,horizontal,1,1.09411150932312,red,4,NaN,712.784863451954,360.378381699593,NaN,NaN,729.712474266665,845.121732464271,1011.40458100154,742.594190385041,1000.94274216971,443.006323791957,712.784863451954,360.378381699593,545.155339110131,608.899371659138,0,0,0,0,0,4,0,NaN,vertical,vertical,horizontal,horizontal,horizontal,none
1c,9,100149,1,55,55,18,F,NA,variable,homogeneous,4,present,1.01790714263916,1,vertical,vertical,1,0.92940767288208,red,3,2,848.656293821019,349.685068220846,1050.31493177915,648.656293821019,751.343706178981,850.314931779154,1050.31493177915,648.656293821019,848.656293821019,349.685068220846,549.685068220846,551.343706178981,0,0,0,0,0,0,4,0,NaN,NaN,vertical,vertical,vertical,vertical,none,none
1c,9,100149,1,56,56,18,F,NA,variable,homogeneous,4,absent,0.761909961700439,1,horizontal,horizontal,1,0.799997515678406,green,2,NaN,1054.96116226488,595.549636358493,NaN,NaN,804.450363641507,854.96116226488,1054.96116226488,595.549636358493,795.549636358493,345.03883773512,545.03883773512,604.450363641507,0,0,0,0,0,4,0,0,NaN,NaN,vertical,horizontal,vertical,vertical,none,none
1c,9,100149,1,57,57,18,F,NA,variable,homogeneous,5,absent,0.894470930099487,1,horizontal,horizontal,1,0.84705575466156,green,3,NaN,1020.83647796503,472.5,NaN,NaN,696.282156015671,832.954091698863,989.501930496736,770.628304621509,1020.83647796503,472.5,746.982518841471,350.57236181288,546.39691668109,573.345241866748,0,0,0,0,4,0,0,NaN,vertical,vertical,horizontal,horizontal,vertical,none
1c,9,100149,1,58,58,18,F,NA,variable,homogeneous,3,present,0.70392918586731,1,vertical,vertical,1,0.964701352119446,red,1,2,1000.94274216971,756.993676208043,835.489140744817,347.4816424709,1000.94274216971,756.993676208043,835.489140744817,347.4816424709,563.568117085469,695.524681321058,0,0,0,0,0,0,4,0,0,NaN,NaN,NaN,vertical,vertical,horizontal,none,none,none
1c,9,100149,1,59,59,18,F,NA,variable,homogeneous,3,present,0.862576007843018,1,horizontal,horizontal,1,0.623529119491577,red,2,1,1051.86052685176,560.109211414741,708.616172865948,838.063008756786,708.616172865948,838.063008756786,1051.86052685176,560.109211414741,639.523300282292,401.827779828472,0,0,0,0,0,0,0,4,0,NaN,NaN,NaN,horizontal,horizontal,vertical,none,none,none
1c,9,100149,1,60,60,18,F,NA,variable,homogeneous,4,absent,0.872969150543213,1,vertical,vertical,1,0.84705575466156,red,4,NaN,613.504806087112,426.090418184063,NaN,NaN,626.090418184063,786.495193912888,986.495193912888,773.909581815937,973.909581815937,413.504806087112,613.504806087112,426.090418184063,0,0,0,0,0,0,0,4,NaN,NaN,horizontal,horizontal,horizontal,vertical,none,none
1c,9,100149,1,61,61,18,F,NA,variable,homogeneous,4,absent,1.41888785362244,1,horizontal,horizontal,1,0.811762075424194,green,3,NaN,692.232343256122,368.891514305654,NaN,NaN,907.767656743878,831.108485694346,1031.10848569435,492.232343256122,692.232343256122,368.891514305654,568.891514305654,707.767656743878,0,0,0,0,0,0,4,0,NaN,NaN,horizontal,vertical,horizontal,vertical,none,none
1c,9,100149,1,62,62,18,F,NA,variable,homogeneous,5,absent,0.815599203109741,1,vertical,vertical,1,0.811762075424194,green,4,NaN,643.006323791957,399.057257830286,NaN,NaN,808.899371659138,854.844660889869,1045.12173246427,670.287525733335,942.594190385041,388.595418998464,643.006323791957,399.057257830286,560.378381699593,687.215136548046,0,0,0,0,0,4,0,NaN,horizontal,vertical,vertical,vertical,vertical,none
1c,9,100149,1,63,63,18,F,NA,variable,homogeneous,6,present,1.3605260848999,1,horizontal,horizontal,1,0.823526635169983,red,3,2,960.476699717708,401.827779828472,1051.86052685176,639.890788585259,891.383827134052,838.063008756786,1051.86052685176,639.890788585259,960.476699717708,401.827779828472,708.616172865948,361.936991243214,548.13947314824,560.109211414741,639.523300282292,798.172220171528,0,0,4,0,0,0,horizontal,vertical,horizontal,vertical,horizontal,horizontal
1c,9,100149,1,64,64,18,F,NA,variable,homogeneous,6,present,0.674935102462769,1,vertical,vertical,1,0.952936792373657,green,4,2,857.362518857686,351.535633479765,986.495193912888,773.909581815937,742.637481142314,848.464366520235,986.495193912888,773.909581815937,1043.85771277057,525.445215295702,857.362518857686,351.535633479765,613.504806087112,426.090418184063,556.142287229426,674.554784704298,0,0,0,4,0,0,horizontal,horizontal,horizontal,vertical,horizontal,vertical
1c,9,100149,2,1,65,18,F,NA,variable,homogeneous,3,absent,0.88496994972229,1,horizontal,horizontal,1,0.92940767288208,red,1,NaN,1011.40458100154,742.594190385041,NaN,NaN,1011.40458100154,742.594190385041,817.787900804752,345.621167183745,570.807518193712,711.784642431215,0,0,0,0,0,0,4,0,0,NaN,NaN,NaN,horizontal,horizontal,vertical,none,none,none
1c,9,100149,2,2,66,18,F,NA,variable,homogeneous,5,absent,0.716580867767334,1,horizontal,horizontal,1,0.68235191822052,green,4,NaN,560.378381699593,512.784863451954,NaN,NaN,942.594190385041,811.404581001536,1045.12173246427,529.712474266665,808.899371659138,345.155339110131,560.378381699593,512.784863451954,643.006323791957,800.942742169714,0,0,0,0,0,4,0,NaN,vertical,horizontal,horizontal,horizontal,vertical,none
1c,9,100149,2,3,67,18,F,NA,variable,homogeneous,5,absent,0.753190994262695,1,horizontal,horizontal,1,0.705881037712097,red,2,NaN,1018.57766167904,731.334709102064,NaN,NaN,742.637481142314,848.464366520235,1018.57766167904,731.334709102064,992.450942956807,432.704947607421,700.363562235235,365.271262369628,545.970351986605,622.224714400653,0,0,0,4,0,0,0,NaN,horizontal,horizontal,horizontal,horizontal,horizontal,none
1c,9,100149,2,4,68,18,F,NA,variable,homogeneous,3,present,0.616260051727295,1,horizontal,horizontal,1,0.988230471611023,green,3,2,553.688914296288,665.998856501143,865.998856501143,353.688914296288,980.31222920257,780.31222920257,865.998856501143,353.688914296288,553.688914296288,665.998856501143,0,0,0,0,0,0,0,0,4,NaN,NaN,NaN,horizontal,vertical,horizontal,none,none,none
1c,9,100149,2,5,69,18,F,NA,variable,homogeneous,5,absent,0.588378190994263,1,vertical,vertical,1,0.988230471611023,green,3,NaN,942.594190385041,388.595418998464,NaN,NaN,808.899371659138,854.844660889869,1045.12173246427,670.287525733335,942.594190385041,388.595418998464,643.006323791957,399.057257830286,560.378381699593,687.215136548046,0,0,0,0,4,0,0,NaN,horizontal,horizontal,vertical,vertical,vertical,none
1c,9,100149,2,6,70,18,F,NA,variable,homogeneous,4,absent,0.605491161346436,1,horizontal,horizontal,1,0.647058238983154,green,2,NaN,992.450942956807,432.704947607421,NaN,NaN,967.295052392579,792.450942956807,992.450942956807,432.704947607421,632.704947607421,407.549057043193,607.549057043193,767.295052392579,0,0,0,0,0,4,0,0,NaN,NaN,vertical,horizontal,horizontal,vertical,none,none
1c,9,100149,2,7,71,18,F,NA,variable,homogeneous,6,present,0.749987125396729,1,vertical,vertical,1,0.811762075424194,red,5,4,548.13947314824,560.109211414741,708.616172865948,361.936991243214,891.383827134052,838.063008756786,1051.86052685176,639.890788585259,960.476699717708,401.827779828472,708.616172865948,361.936991243214,548.13947314824,560.109211414741,639.523300282292,798.172220171528,0,0,0,0,4,0,vertical,horizontal,horizontal,horizontal,vertical,horizontal
1c,9,100149,2,8,72,18,F,NA,variable,homogeneous,4,absent,0.649764060974121,1,vertical,vertical,1,0.835291194915772,red,2,NaN,1051.86052685176,639.890788585259,NaN,NaN,760.109211414741,851.86052685176,1051.86052685176,639.890788585259,839.890788585259,348.13947314824,548.13947314824,560.109211414741,0,0,0,0,0,4,0,0,NaN,NaN,vertical,vertical,horizontal,vertical,none,none
1c,9,100149,2,9,73,18,F,NA,variable,homogeneous,4,absent,0.664393901824951,1,vertical,vertical,1,1.07058238983154,green,2,NaN,1027.20666366803,715.767577433584,NaN,NaN,684.232422566416,827.206663668034,1027.20666366803,715.767577433584,915.767577433584,372.793336331966,572.793336331966,484.232422566416,0,0,0,0,0,4,0,0,NaN,NaN,vertical,vertical,vertical,horizontal,none,none
1c,9,100149,2,10,74,18,F,NA,variable,homogeneous,3,present,0.762840986251831,1,vertical,vertical,1,0.84705575466156,red,3,2,613.504806087112,426.090418184063,1043.85771277057,525.445215295702,742.637481142314,848.464366520235,1043.85771277057,525.445215295702,613.504806087112,426.090418184063,0,0,0,0,0,0,0,0,4,NaN,NaN,NaN,vertical,horizontal,vertical,none,none,none
1c,9,100149,2,11,75,18,F,NA,variable,homogeneous,6,absent,0.635822057723999,1,vertical,vertical,1,0.882349433898926,red,5,NaN,601.827779828472,439.523300282291,NaN,NaN,760.109211414741,851.86052685176,998.172220171528,760.476699717708,1038.06300875679,508.616172865948,839.890788585259,348.13947314824,601.827779828472,439.523300282291,561.936991243214,691.383827134052,0,0,0,0,4,0,vertical,horizontal,vertical,vertical,vertical,vertical
1c,9,100149,2,12,76,18,F,NA,variable,homogeneous,4,present,1.03539204597473,1,vertical,vertical,1,0.729410157203674,red,1,2,636.089159529932,795.341332995339,995.341332995339,763.910840470068,636.089159529932,795.341332995339,995.341332995339,763.910840470068,963.910840470068,404.658667004661,604.658667004661,436.089159529932,0,0,0,0,4,0,0,0,NaN,NaN,vertical,horizontal,vertical,vertical,none,none
1c,9,100149,2,13,77,18,F,NA,variable,homogeneous,4,absent,0.61260199546814,1,horizontal,horizontal,1,0.623529119491577,red,4,NaN,616.568350913644,422.862115532956,NaN,NaN,622.862115532956,783.431649086356,983.431649086356,777.137884467044,977.137884467044,416.568350913644,616.568350913644,422.862115532956,0,0,0,0,0,0,0,4,NaN,NaN,vertical,horizontal,vertical,horizontal,none,none
1c,9,100149,2,14,78,18,F,NA,variable,homogeneous,4,present,0.639167070388794,1,vertical,vertical,1,0.694116477966309,red,4,2,546.39691668109,626.654758133252,1053.60308331891,573.345241866748,826.654758133252,853.60308331891,1053.60308331891,573.345241866748,773.345241866748,346.39691668109,546.39691668109,626.654758133252,0,0,0,0,0,0,0,4,NaN,NaN,horizontal,vertical,horizontal,vertical,none,none
1c,9,100149,2,15,79,18,F,NA,variable,homogeneous,4,present,0.769062995910645,1,vertical,vertical,1,1.04705327033997,green,2,1,1025.15163617903,480.284751489598,919.715248510402,825.151636179026,919.715248510402,825.151636179026,1025.15163617903,480.284751489598,680.284751489598,374.848363820974,574.848363820974,719.715248510402,0,0,0,0,0,4,0,0,NaN,NaN,horizontal,vertical,vertical,vertical,none,none
1c,9,100149,2,16,80,18,F,NA,variable,homogeneous,5,present,0.974692106246948,1,horizontal,horizontal,1,0.905878553390503,red,1,3,746.982518841471,849.42763818712,989.501930496736,429.371695378491,746.982518841471,849.42763818712,1020.83647796503,727.5,989.501930496736,429.371695378491,696.282156015671,367.045908301137,546.39691668109,626.654758133252,0,0,4,0,0,0,0,NaN,horizontal,vertical,horizontal,vertical,horizontal,none
1c,9,100149,2,17,81,18,F,NA,variable,homogeneous,5,absent,0.710685968399048,1,vertical,vertical,1,0.823526635169983,red,1,NaN,773.345241866748,853.60308331891,NaN,NaN,773.345241866748,853.60308331891,1032.95409169886,703.717843984329,970.628304621509,410.498069503264,672.5,379.163522034968,550.57236181288,653.017481158529,0,0,4,0,0,0,0,NaN,vertical,vertical,horizontal,vertical,horizontal,none
1c,9,100149,2,18,82,18,F,NA,variable,homogeneous,5,absent,0.903280019760132,1,horizontal,horizontal,1,0.705881037712097,red,2,NaN,1042.51941165526,678.799333565612,NaN,NaN,800,855,1042.51941165526,678.799333565612,949.885239334581,393.700666434388,650.114760665419,393.700666434388,557.480588344736,678.799333565612,0,0,0,4,0,0,0,NaN,horizontal,horizontal,vertical,horizontal,horizontal,none
1c,9,100149,2,19,83,18,F,NA,variable,homogeneous,3,absent,0.706568956375122,1,vertical,vertical,1,0.858820314407349,red,1,NaN,861.690083377915,847.425410200379,NaN,NaN,861.690083377915,847.425410200379,983.431649086356,422.862115532956,554.878267535729,529.712474266665,0,0,0,0,0,0,4,0,0,NaN,NaN,NaN,vertical,vertical,horizontal,none,none,none
1c,9,100149,2,20,84,18,F,NA,variable,homogeneous,4,absent,0.61772608757019,1,horizontal,horizontal,1,0.635293679237366,green,2,NaN,1034.72873763037,699.636437764765,NaN,NaN,700.363562235235,834.728737630372,1034.72873763037,699.636437764765,899.636437764765,365.271262369628,565.271262369628,500.363562235235,0,0,0,0,0,4,0,0,NaN,NaN,vertical,horizontal,vertical,vertical,none,none
1c,9,100149,2,21,85,18,F,NA,variable,homogeneous,4,absent,0.833687782287598,1,vertical,vertical,1,0.776468396186829,red,1,NaN,911.784642431215,829.192481806288,NaN,NaN,911.784642431215,829.192481806288,1029.19248180629,488.215357568785,688.215357568785,370.807518193712,570.807518193712,711.784642431215,0,0,0,0,4,0,0,0,NaN,NaN,vertical,vertical,vertical,vertical,none,none
1c,9,100149,2,22,86,18,F,NA,variable,homogeneous,6,absent,0.772078990936279,1,horizontal,horizontal,1,1.08234694957733,green,2,NaN,1045.12173246427,670.287525733335,NaN,NaN,861.690083377915,847.425410200379,1045.12173246427,670.287525733335,983.431649086356,422.862115532956,738.309916622085,352.574589799621,554.878267535729,529.712474266665,616.568350913644,777.137884467044,0,4,0,0,0,0,horizontal,horizontal,vertical,vertical,horizontal,vertical
1c,9,100149,2,23,87,18,F,NA,variable,homogeneous,4,absent,0.853065967559814,1,horizontal,horizontal,1,0.870584874153137,red,3,NaN,626.090418184063,413.504806087112,NaN,NaN,973.909581815937,786.495193912888,986.495193912888,426.090418184063,626.090418184063,413.504806087112,613.504806087112,773.909581815937,0,0,0,0,0,0,4,0,NaN,NaN,horizontal,vertical,horizontal,vertical,none,none
1c,9,100149,2,24,88,18,F,NA,variable,homogeneous,5,present,0.70110011100769,1,vertical,vertical,1,0.941172232627869,red,3,2,808.899371659138,345.155339110131,1045.12173246427,529.712474266665,942.594190385041,811.404581001536,1045.12173246427,529.712474266665,808.899371659138,345.155339110131,560.378381699593,512.784863451954,643.006323791957,800.942742169714,0,0,0,0,4,0,0,NaN,horizontal,vertical,vertical,horizontal,vertical,none
1c,9,100149,2,25,89,18,F,NA,variable,homogeneous,5,present,0.613139152526855,1,vertical,vertical,1,1.09411150932312,green,2,5,1049.42763818712,653.017481158529,567.045908301137,703.717843984329,826.654758133252,853.60308331891,1049.42763818712,653.017481158529,927.5,379.163522034968,629.371695378491,410.498069503264,567.045908301137,703.717843984329,0,0,0,4,0,0,0,NaN,horizontal,vertical,horizontal,horizontal,horizontal,none
1c,9,100149,2,26,90,18,F,NA,variable,homogeneous,3,present,0.62822699546814,1,vertical,vertical,1,0.92940767288208,red,2,1,1054.37883281626,617.787900804752,657.405809614959,811.404581001536,657.405809614959,811.404581001536,1054.37883281626,617.787900804752,688.215357568785,370.807518193712,0,0,0,0,0,0,0,4,0,NaN,NaN,NaN,horizontal,vertical,horizontal,none,none,none
1c,9,100149,2,27,91,18,F,NA,variable,homogeneous,5,absent,0.694151878356934,1,horizontal,horizontal,1,1.05881783008575,green,1,NaN,755.719714694933,851.125977018113,NaN,NaN,755.719714694933,851.125977018113,1025.15163617903,719.715248510402,983.431649086356,422.862115532956,688.215357568785,370.807518193712,547.481642470899,635.489140744817,0,0,4,0,0,0,0,NaN,horizontal,vertical,horizontal,horizontal,vertical,none
1c,9,100149,2,28,92,18,F,NA,variable,homogeneous,3,present,0.672453880310059,1,horizontal,horizontal,1,0.611764559745789,red,1,3,874.554784704298,843.857712770574,551.535633479765,542.637481142314,874.554784704298,843.857712770574,973.909581815937,413.504806087112,551.535633479765,542.637481142314,0,0,0,0,0,0,4,0,0,NaN,NaN,NaN,horizontal,vertical,horizontal,none,none,none
1c,9,100149,2,29,93,18,F,NA,variable,homogeneous,4,present,0.562885999679565,1,horizontal,horizontal,1,0.835291194915772,red,4,3,556.142287229426,674.554784704298,725.445215295702,356.142287229426,874.554784704298,843.857712770574,1043.85771277057,525.445215295702,725.445215295702,356.142287229426,556.142287229426,674.554784704298,0,0,0,0,0,0,0,4,NaN,NaN,vertical,horizontal,vertical,horizontal,none,none
1c,9,100149,2,30,94,18,F,NA,variable,homogeneous,6,absent,0.591471910476685,1,horizontal,horizontal,1,1.07058238983154,red,2,NaN,1054.65053136242,613.345668841951,NaN,NaN,915.767577433584,827.206663668034,1054.65053136242,613.345668841951,938.882953928832,386.139005173917,684.232422566416,372.793336331966,545.349468637584,586.654331158049,661.117046071168,813.860994826083,0,4,0,0,0,0,vertical,horizontal,horizontal,vertical,horizontal,vertical
1c,9,100149,2,31,95,18,F,NA,variable,homogeneous,6,absent,0.529955148696899,1,vertical,vertical,1,0.917643113136291,green,2,NaN,1025.15163617903,719.715248510402,NaN,NaN,808.899371659138,854.844660889869,1025.15163617903,719.715248510402,1016.25226451989,464.870587620533,791.100628340862,345.155339110131,574.848363820974,480.284751489598,583.747735480111,735.129412379467,0,4,0,0,0,0,vertical,vertical,vertical,horizontal,horizontal,horizontal
1c,9,100149,2,32,96,18,F,NA,variable,homogeneous,6,present,0.559153079986572,1,horizontal,horizontal,1,0.917643113136291,red,2,5,1036.43188291453,695.524681321058,563.568117085469,504.475318678942,835.489140744817,852.518357529101,1036.43188291453,695.524681321058,1000.94274216971,443.006323791957,764.510859255183,347.4816424709,563.568117085469,504.475318678942,599.057257830286,756.993676208043,0,4,0,0,0,0,vertical,horizontal,vertical,horizontal,horizontal,horizontal
1c,9,100149,2,33,97,18,F,NA,variable,homogeneous,6,present,0.860379934310913,0,horizontal,vertical,1,0.894113993644714,green,3,4,960.476699717708,401.827779828472,708.616172865948,361.936991243214,891.383827134052,838.063008756786,1051.86052685176,639.890788585259,960.476699717708,401.827779828472,708.616172865948,361.936991243214,548.13947314824,560.109211414741,639.523300282292,798.172220171528,0,0,4,0,0,0,horizontal,horizontal,horizontal,vertical,horizontal,vertical
1c,9,100149,2,34,98,18,F,NA,variable,homogeneous,3,absent,0.861850023269653,1,horizontal,horizontal,1,0.6,green,1,NaN,610.498069503264,770.628304621509,NaN,NaN,610.498069503264,770.628304621509,1042.51941165526,678.799333565612,746.982518841471,350.57236181288,0,0,0,0,0,0,4,0,0,NaN,NaN,NaN,horizontal,vertical,horizontal,none,none,none
1c,9,100149,2,35,99,18,F,NA,variable,homogeneous,5,absent,0.649064064025879,1,vertical,vertical,1,0.894113993644714,green,2,NaN,1027.20666366803,715.767577433584,NaN,NaN,760.109211414741,851.86052685176,1027.20666366803,715.767577433584,980.31222920257,419.68777079743,684.232422566416,372.793336331966,548.13947314824,639.890788585259,0,0,0,4,0,0,0,NaN,vertical,vertical,horizontal,horizontal,vertical,none
1c,9,100149,2,36,100,18,F,NA,variable,homogeneous,3,absent,0.73475193977356,1,vertical,vertical,1,0.823526635169983,green,1,NaN,963.910840470068,795.341332995339,NaN,NaN,963.910840470068,795.341332995339,887.215136548046,360.378381699593,548.874022981887,644.280285305067,0,0,0,0,0,0,4,0,0,NaN,NaN,NaN,vertical,horizontal,vertical,none,none,none
1c,9,100149,2,37,101,18,F,NA,variable,homogeneous,6,present,1.47601413726807,1,horizontal,horizontal,1,0.917643113136291,red,3,6,1048.46436652023,542.637481142314,551.535633479765,657.362518857686,725.445215295702,843.857712770574,973.909581815937,786.495193912888,1048.46436652023,542.637481142314,874.554784704298,356.142287229426,626.090418184063,413.504806087112,551.535633479765,657.362518857686,0,0,4,0,0,0,vertical,horizontal,horizontal,vertical,horizontal,vertical
1c,9,100149,2,38,102,18,F,NA,variable,homogeneous,3,absent,0.696285963058472,1,vertical,vertical,1,0.92940767288208,red,2,NaN,874.554784704298,356.142287229426,NaN,NaN,973.909581815937,786.495193912888,874.554784704298,356.142287229426,551.535633479765,657.362518857686,0,0,0,0,0,0,0,4,0,NaN,NaN,NaN,horizontal,vertical,horizontal,none,none,none
1c,9,100149,2,39,103,18,F,NA,variable,homogeneous,5,absent,0.850641965866089,1,vertical,vertical,1,0.611764559745789,red,4,NaN,755.719714694933,348.874022981887,NaN,NaN,688.215357568785,829.192481806288,983.431649086356,777.137884467044,1025.15163617903,480.284751489598,755.719714694933,348.874022981887,547.481642470899,564.510859255183,0,0,0,0,0,4,0,NaN,horizontal,horizontal,vertical,vertical,horizontal,none
1c,9,100149,2,40,104,18,F,NA,variable,homogeneous,5,present,0.701545000076294,1,vertical,vertical,1,1.08234694957733,red,3,5,1031.10848569435,492.232343256122,549.685068220846,551.343706178981,676.373546837184,823.028025320546,973.909581815937,786.495193912888,1031.10848569435,492.232343256122,768.923317431687,346.900731331463,549.685068220846,551.343706178981,0,0,0,0,4,0,0,NaN,vertical,horizontal,vertical,vertical,vertical,none
1c,9,100149,2,41,105,18,F,NA,variable,homogeneous,6,absent,1.3415470123291,1,vertical,vertical,1,0.894113993644714,green,5,NaN,576.971974679454,476.373546837184,NaN,NaN,804.450363641507,854.96116226488,1023.02802532055,723.626453162816,1018.57766167904,468.665290897936,795.549636358493,345.03883773512,576.971974679454,476.373546837184,581.422338320961,731.334709102064,0,0,0,0,4,0,vertical,horizontal,vertical,horizontal,vertical,horizontal
1c,9,100149,2,42,106,18,F,NA,variable,homogeneous,3,absent,0.672533988952637,1,horizontal,horizontal,1,0.788232955932617,red,2,NaN,895.524681321058,363.568117085469,NaN,NaN,956.993676208043,800.942742169714,895.524681321058,363.568117085469,547.481642470899,635.489140744817,0,0,0,0,0,0,0,4,0,NaN,NaN,NaN,horizontal,horizontal,horizontal,none,none,none
1c,9,100149,2,43,107,18,F,NA,variable,homogeneous,5,present,0.616387128829956,1,horizontal,horizontal,1,0.717645597457886,green,3,1,989.501930496736,429.371695378491,746.982518841471,849.42763818712,746.982518841471,849.42763818712,1020.83647796503,727.5,989.501930496736,429.371695378491,696.282156015671,367.045908301137,546.39691668109,626.654758133252,0,0,0,0,4,0,0,NaN,horizontal,vertical,horizontal,vertical,vertical,none
1c,9,100149,2,44,108,18,F,NA,variable,homogeneous,4,present,0.693137884140015,1,horizontal,horizontal,1,0.611764559745789,green,4,2,556.142287229426,674.554784704298,1043.85771277057,525.445215295702,874.554784704298,843.857712770574,1043.85771277057,525.445215295702,725.445215295702,356.142287229426,556.142287229426,674.554784704298,0,0,0,0,0,0,0,4,NaN,NaN,horizontal,vertical,vertical,horizontal,none,none
1c,9,100149,2,45,109,18,F,NA,variable,homogeneous,6,absent,0.596682071685791,1,horizontal,horizontal,1,1.07058238983154,green,3,NaN,1048.46436652023,542.637481142314,NaN,NaN,725.445215295702,843.857712770574,973.909581815937,786.495193912888,1048.46436652023,542.637481142314,874.554784704298,356.142287229426,626.090418184063,413.504806087112,551.535633479765,657.362518857686,0,0,4,0,0,0,horizontal,vertical,horizontal,vertical,horizontal,horizontal
1c,9,100149,2,46,110,18,F,NA,variable,homogeneous,3,absent,0.76283597946167,1,horizontal,horizontal,1,0.705881037712097,green,1,NaN,919.715248510402,825.151636179026,NaN,NaN,919.715248510402,825.151636179026,935.129412379467,383.747735480111,545.155339110131,591.100628340862,0,0,0,0,0,0,4,0,0,NaN,NaN,NaN,horizontal,vertical,vertical,none,none,none
1c,9,100149,2,47,111,18,F,NA,variable,homogeneous,3,present,0.578855037689209,1,vertical,vertical,1,1.03528871059418,green,1,3,861.690083377915,847.425410200379,554.878267535729,529.712474266665,861.690083377915,847.425410200379,983.431649086356,422.862115532956,554.878267535729,529.712474266665,0,0,0,0,0,0,4,0,0,NaN,NaN,NaN,vertical,horizontal,vertical,none,none,none
1c,9,100149,2,48,112,18,F,NA,variable,homogeneous,6,present,0.682945013046265,1,horizontal,horizontal,1,0.811762075424194,green,2,3,1054.96116226488,604.450363641507,931.334709102064,381.422338320961,923.626453162816,823.028025320546,1054.96116226488,604.450363641507,931.334709102064,381.422338320961,676.373546837184,376.971974679454,545.03883773512,595.549636358493,668.665290897936,818.577661679039,0,4,0,0,0,0,horizontal,horizontal,vertical,vertical,horizontal,horizontal
1c,9,100149,2,49,113,18,F,NA,variable,homogeneous,6,absent,0.780476093292236,1,vertical,vertical,1,0.776468396186829,red,2,NaN,1038.06300875679,691.383827134052,NaN,NaN,839.890788585259,851.86052685176,1038.06300875679,691.383827134052,998.172220171528,439.523300282291,760.109211414741,348.13947314824,561.936991243214,508.616172865948,601.827779828472,760.476699717708,0,4,0,0,0,0,horizontal,vertical,horizontal,vertical,horizontal,horizontal
1c,9,100149,2,50,114,18,F,NA,variable,homogeneous,3,present,1.26319098472595,1,vertical,vertical,1,0.952936792373657,green,3,2,588.595418998464,457.40580961496,1029.19248180629,488.215357568785,782.212099195248,854.378832816255,1029.19248180629,488.215357568785,588.595418998464,457.40580961496,0,0,0,0,0,0,0,0,4,NaN,NaN,NaN,vertical,horizontal,vertical,none,none,none
1c,9,100149,2,51,115,18,F,NA,variable,homogeneous,3,present,0.851068019866943,1,horizontal,horizontal,1,0.917643113136291,green,1,3,712.784863451954,839.621618300407,636.089159529932,404.658667004661,712.784863451954,839.621618300407,1051.12597701811,555.719714694933,636.089159529932,404.658667004661,0,0,0,0,0,0,4,0,0,NaN,NaN,NaN,horizontal,vertical,horizontal,none,none,none
1c,9,100149,2,52,116,18,F,NA,variable,homogeneous,4,present,0.535432815551758,1,horizontal,horizontal,1,0.752939276695251,green,2,4,1054.37883281626,582.212099195248,545.621167183745,617.787900804752,817.787900804752,854.378832816255,1054.37883281626,582.212099195248,782.212099195248,345.621167183745,545.621167183745,617.787900804752,0,0,0,0,0,4,0,0,NaN,NaN,horizontal,horizontal,horizontal,horizontal,none,none
1c,9,100149,2,53,117,18,F,NA,variable,homogeneous,6,absent,0.691559791564941,1,horizontal,horizontal,1,0.870584874153137,red,6,NaN,557.480588344736,678.799333565612,NaN,NaN,746.982518841471,849.42763818712,989.501930496736,770.628304621509,1042.51941165526,521.200666434388,853.017481158529,350.57236181288,610.498069503264,429.371695378491,557.480588344736,678.799333565612,0,0,0,0,0,4,vertical,vertical,vertical,vertical,vertical,horizontal
1c,9,100149,2,54,118,18,F,NA,variable,homogeneous,5,present,1.29813289642334,1,vertical,vertical,1,0.635293679237366,green,3,5,826.654758133252,346.39691668109,629.371695378491,789.501930496736,927.5,820.836477965032,1049.42763818712,546.982518841471,826.654758133252,346.39691668109,567.045908301137,496.282156015671,629.371695378491,789.501930496736,0,0,0,0,4,0,0,NaN,vertical,vertical,vertical,horizontal,horizontal,none
1c,9,100149,2,55,119,18,F,NA,variable,homogeneous,3,present,0.745691061019897,1,horizontal,horizontal,1,1.07058238983154,red,3,1,591.116228706307,453.738008730483,777.775285599347,854.029648013395,777.775285599347,854.029648013395,1031.10848569435,492.232343256122,591.116228706307,453.738008730483,0,0,0,0,0,0,0,0,4,NaN,NaN,NaN,horizontal,vertical,horizontal,none,none,none
1c,9,100149,2,56,120,18,F,NA,variable,homogeneous,5,present,0.653532028198242,1,horizontal,horizontal,1,1.03528871059418,green,5,1,576.971974679454,723.626453162816,848.656293821019,850.314931779154,848.656293821019,850.314931779154,1053.09926866854,631.076682568313,907.767656743878,368.891514305654,613.504806087112,426.090418184063,576.971974679454,723.626453162816,0,0,0,0,0,0,4,NaN,horizontal,horizontal,horizontal,vertical,horizontal,none
1c,9,100149,2,57,121,18,F,NA,variable,homogeneous,4,present,0.62384295463562,1,vertical,vertical,1,0.858820314407349,green,2,4,1006.29933356561,450.114760665419,593.700666434388,749.885239334581,949.885239334581,806.299333565612,1006.29933356561,450.114760665419,650.114760665419,393.700666434388,593.700666434388,749.885239334581,0,0,0,0,0,4,0,0,NaN,NaN,vertical,vertical,horizontal,horizontal,none,none
1c,9,100149,2,58,122,18,F,NA,variable,homogeneous,4,absent,0.648367881774902,1,vertical,vertical,1,0.988230471611023,green,2,NaN,1042.51941165526,521.200666434388,NaN,NaN,878.799333565612,842.519411655264,1042.51941165526,521.200666434388,721.200666434388,357.480588344736,557.480588344736,678.799333565612,0,0,0,0,0,4,0,0,NaN,NaN,horizontal,vertical,vertical,horizontal,none,none
1c,9,100149,2,59,123,18,F,NA,variable,homogeneous,4,present,0.803685188293457,1,horizontal,horizontal,1,0.705881037712097,red,1,2,963.910840470068,795.341332995339,995.341332995339,436.089159529932,963.910840470068,795.341332995339,995.341332995339,436.089159529932,636.089159529932,404.658667004661,604.658667004661,763.910840470068,0,0,0,0,4,0,0,0,NaN,NaN,horizontal,vertical,vertical,vertical,none,none
1c,9,100149,2,60,124,18,F,NA,variable,homogeneous,6,present,0.684602975845337,1,vertical,vertical,1,1.03528871059418,green,2,5,1054.0296480134,622.224714400653,545.970351986605,577.775285599347,907.767656743878,831.108485694346,1054.0296480134,622.224714400653,946.261991269517,391.116228706307,692.232343256122,368.891514305654,545.970351986605,577.775285599347,653.738008730483,808.883771293693,0,4,0,0,0,0,vertical,vertical,vertical,horizontal,vertical,horizontal
1c,9,100149,2,61,125,18,F,NA,variable,homogeneous,3,absent,0.616055011749268,1,vertical,vertical,1,1.07058238983154,green,3,NaN,553.688914296288,665.998856501143,NaN,NaN,980.31222920257,780.31222920257,865.998856501143,353.688914296288,553.688914296288,665.998856501143,0,0,0,0,0,0,0,0,4,NaN,NaN,NaN,horizontal,horizontal,vertical,none,none,none
1c,9,100149,2,62,126,18,F,NA,variable,homogeneous,6,present,0.84426212310791,1,vertical,vertical,1,0.988230471611023,green,4,2,688.215357568785,370.807518193712,1054.37883281626,617.787900804752,911.784642431215,829.192481806288,1054.37883281626,617.787900804752,942.594190385041,388.595418998464,688.215357568785,370.807518193712,545.621167183745,582.212099195248,657.405809614959,811.404581001536,0,0,0,4,0,0,vertical,vertical,horizontal,vertical,horizontal,horizontal
1c,9,100149,2,63,127,18,F,NA,variable,homogeneous,6,present,0.727020025253296,1,vertical,vertical,1,1.09411150932312,red,5,3,591.116228706307,453.738008730483,1031.10848569435,492.232343256122,777.775285599347,854.029648013395,1008.88377129369,746.261991269517,1031.10848569435,492.232343256122,822.224714400653,345.970351986605,591.116228706307,453.738008730483,568.891514305654,707.767656743878,0,0,0,0,4,0,vertical,horizontal,horizontal,horizontal,vertical,horizontal
1c,9,100149,2,64,128,18,F,NA,variable,homogeneous,5,present,1.33665299415588,1,horizontal,horizontal,1,0.741174716949463,red,1,3,668.665290897936,818.577661679039,1034.72873763037,500.363562235235,668.665290897936,818.577661679039,967.295052392579,792.450942956807,1034.72873763037,500.363562235235,777.775285599347,345.970351986605,551.535633479765,542.637481142314,0,0,4,0,0,0,0,NaN,horizontal,vertical,horizontal,vertical,horizontal,none
1c,9,100149,3,1,129,18,F,NA,variable,homogeneous,5,absent,1.04641699790955,1,horizontal,horizontal,1,0.941172232627869,red,2,NaN,1008.88377129369,746.261991269517,NaN,NaN,725.445215295702,843.857712770574,1008.88377129369,746.261991269517,1003.65205506206,446.537169096228,716.980120613425,358.892763222174,545.03883773512,604.450363641507,0,0,0,4,0,0,0,NaN,vertical,horizontal,vertical,horizontal,vertical,none
1c,9,100149,3,2,130,18,F,NA,variable,homogeneous,6,present,1.03303194046021,1,vertical,vertical,1,0.858820314407349,red,5,2,552.574589799621,538.309916622085,1047.42541020038,661.690083377915,870.287525733335,845.121732464271,1047.42541020038,661.690083377915,977.137884467044,416.568350913644,729.712474266665,354.878267535729,552.574589799621,538.309916622085,622.862115532956,783.431649086356,0,0,0,0,4,0,vertical,vertical,vertical,horizontal,vertical,vertical
1c,9,100149,3,3,131,18,F,NA,variable,homogeneous,4,present,0.699010848999023,1,vertical,vertical,1,0.658822798728943,green,4,2,591.116228706307,746.261991269517,1008.88377129369,453.738008730483,946.261991269517,808.883771293693,1008.88377129369,453.738008730483,653.738008730483,391.116228706307,591.116228706307,746.261991269517,0,0,0,0,0,0,0,4,NaN,NaN,horizontal,horizontal,vertical,vertical,none,none
1c,9,100149,3,4,132,18,F,NA,variable,homogeneous,6,absent,0.548794984817505,1,vertical,vertical,1,0.788232955932617,green,6,NaN,552.574589799621,661.690083377915,NaN,NaN,729.712474266665,845.121732464271,977.137884467044,783.431649086356,1047.42541020038,538.309916622085,870.287525733335,354.878267535729,622.862115532956,416.568350913644,552.574589799621,661.690083377915,0,0,0,0,0,4,horizontal,vertical,vertical,horizontal,horizontal,vertical
1c,9,100149,3,5,133,18,F,NA,variable,homogeneous,5,absent,0.690200090408325,1,horizontal,horizontal,1,0.905878553390503,green,3,NaN,822.224714400653,345.970351986605,NaN,NaN,931.334709102064,818.577661679039,1048.46436652023,542.637481142314,822.224714400653,345.970351986605,565.271262369628,500.363562235235,632.704947607421,792.450942956807,0,0,0,0,4,0,0,NaN,horizontal,horizontal,horizontal,vertical,vertical,none
1c,9,100149,3,6,134,18,F,NA,variable,homogeneous,5,present,0.711883068084717,1,horizontal,horizontal,1,0.788232955932617,red,1,4,899.636437764765,834.728737630372,581.422338320961,468.665290897936,899.636437764765,834.728737630372,1054.0296480134,577.775285599347,857.362518857686,351.535633479765,581.422338320961,468.665290897936,607.549057043193,767.295052392579,0,0,4,0,0,0,0,NaN,horizontal,vertical,horizontal,horizontal,vertical,none
1c,9,100149,3,7,135,18,F,NA,variable,homogeneous,4,absent,0.577677011489868,1,horizontal,horizontal,1,0.776468396186829,red,2,NaN,1039.62161830041,512.784863451954,NaN,NaN,887.215136548046,839.621618300407,1039.62161830041,512.784863451954,712.784863451954,360.378381699593,560.378381699593,687.215136548046,0,0,0,0,0,4,0,0,NaN,NaN,vertical,horizontal,horizontal,horizontal,none,none
1c,9,100149,3,8,136,18,F,NA,variable,homogeneous,4,present,0.613910913467407,1,vertical,vertical,1,0.623529119491577,green,4,2,596.34794493794,753.462830903772,1003.65205506206,446.537169096228,953.462830903772,803.65205506206,1003.65205506206,446.537169096228,646.537169096228,396.34794493794,596.34794493794,753.462830903772,0,0,0,0,0,0,0,4,NaN,NaN,vertical,vertical,horizontal,vertical,none,none
1c,9,100149,3,9,137,18,F,NA,variable,homogeneous,5,present,0.765042066574097,1,horizontal,horizontal,1,0.729410157203674,green,2,3,1054.37883281626,617.787900804752,895.524681321058,363.568117085469,861.690083377915,847.425410200379,1054.37883281626,617.787900804752,895.524681321058,363.568117085469,604.658667004661,436.089159529932,583.747735480111,735.129412379467,0,0,0,4,0,0,0,NaN,vertical,horizontal,vertical,vertical,horizontal,none
1c,9,100149,3,10,138,18,F,NA,variable,homogeneous,5,absent,0.78252100944519,1,horizontal,horizontal,1,1.09411150932312,red,2,NaN,1052.5183575291,635.489140744817,NaN,NaN,844.280285305067,851.125977018113,1052.5183575291,635.489140744817,911.784642431215,370.807518193712,616.568350913644,422.862115532956,574.848363820974,719.715248510402,0,0,0,4,0,0,0,NaN,horizontal,horizontal,horizontal,vertical,horizontal,none
1c,9,100149,3,11,139,18,F,NA,variable,homogeneous,5,present,0.806993961334229,1,vertical,vertical,1,0.835291194915772,green,1,4,738.309916622085,847.425410200379,704.475318678942,363.568117085469,738.309916622085,847.425410200379,1016.25226451989,735.129412379467,995.341332995339,436.089159529932,704.475318678942,363.568117085469,545.621167183745,617.787900804752,0,0,4,0,0,0,0,NaN,vertical,vertical,horizontal,vertical,horizontal,none
1c,9,100149,3,12,140,18,F,NA,variable,homogeneous,4,present,0.83292293548584,1,horizontal,horizontal,1,0.68235191822052,red,2,1,1048.46436652023,542.637481142314,857.362518857686,848.464366520235,857.362518857686,848.464366520235,1048.46436652023,542.637481142314,742.637481142314,351.535633479765,551.535633479765,657.362518857686,0,0,0,0,0,4,0,0,NaN,NaN,horizontal,horizontal,horizontal,horizontal,none,none
1c,9,100149,3,13,141,18,F,NA,variable,homogeneous,4,absent,0.660201072692871,1,vertical,vertical,1,0.729410157203674,red,2,NaN,1023.02802532055,476.373546837184,NaN,NaN,923.626453162816,823.028025320546,1023.02802532055,476.373546837184,676.373546837184,376.971974679454,576.971974679454,723.626453162816,0,0,0,0,0,4,0,0,NaN,NaN,horizontal,vertical,horizontal,horizontal,none,none
1c,9,100149,3,14,142,18,F,NA,variable,homogeneous,6,absent,0.92519998550415,1,horizontal,horizontal,1,0.776468396186829,red,6,NaN,661.117046071168,813.860994826083,NaN,NaN,915.767577433584,827.206663668034,1054.65053136242,613.345668841951,938.882953928832,386.139005173917,684.232422566416,372.793336331966,545.349468637584,586.654331158049,661.117046071168,813.860994826083,0,0,0,0,0,4,horizontal,vertical,horizontal,vertical,horizontal,horizontal
1c,9,100149,3,15,143,18,F,NA,variable,homogeneous,5,absent,0.729586124420166,1,vertical,vertical,1,0.882349433898926,red,2,NaN,1000.94274216971,756.993676208043,NaN,NaN,712.784863451954,839.621618300407,1000.94274216971,756.993676208043,1011.40458100154,457.40580961496,729.712474266665,354.878267535729,545.155339110131,591.100628340862,0,0,0,4,0,0,0,NaN,horizontal,vertical,vertical,horizontal,horizontal,none
1c,9,100149,3,16,144,18,F,NA,variable,homogeneous,3,present,0.991307020187378,1,vertical,vertical,1,0.741174716949463,green,1,2,650.114760665419,806.299333565612,1053.60308331891,626.654758133252,650.114760665419,806.299333565612,1053.60308331891,626.654758133252,696.282156015671,367.045908301137,0,0,0,0,0,0,4,0,0,NaN,NaN,NaN,vertical,vertical,vertical,none,none,none
1c,9,100149,3,17,145,18,F,NA,variable,homogeneous,3,absent,0.750227928161621,1,horizontal,horizontal,1,0.952936792373657,green,3,NaN,616.568350913644,422.862115532956,NaN,NaN,738.309916622085,847.425410200379,1045.12173246427,529.712474266665,616.568350913644,422.862115532956,0,0,0,0,0,0,0,0,4,NaN,NaN,NaN,horizontal,horizontal,horizontal,none,none,none
1c,9,100149,3,18,146,18,F,NA,variable,homogeneous,6,absent,1.04663801193237,1,horizontal,horizontal,1,0.870584874153137,red,6,NaN,563.568117085469,695.524681321058,NaN,NaN,764.510859255183,852.518357529101,1000.94274216971,756.993676208043,1036.43188291453,504.475318678942,835.489140744817,347.4816424709,599.057257830286,443.006323791957,563.568117085469,695.524681321058,0,0,0,0,0,4,vertical,horizontal,horizontal,vertical,vertical,horizontal
1c,9,100149,3,19,147,18,F,NA,variable,homogeneous,3,present,0.661825180053711,1,vertical,vertical,1,0.894113993644714,red,3,1,688.215357568785,370.807518193712,657.405809614959,811.404581001536,657.405809614959,811.404581001536,1054.37883281626,617.787900804752,688.215357568785,370.807518193712,0,0,0,0,0,0,0,0,4,NaN,NaN,NaN,vertical,horizontal,vertical,none,none,none
1c,9,100149,3,20,148,18,F,NA,variable,homogeneous,3,absent,0.659494161605835,1,vertical,vertical,1,0.611764559745789,green,2,NaN,992.450942956807,432.704947607421,NaN,NaN,848.656293821019,850.314931779154,992.450942956807,432.704947607421,558.892763222174,516.980120613425,0,0,0,0,0,0,0,4,0,NaN,NaN,NaN,vertical,vertical,vertical,none,none,none
1c,9,100149,3,21,149,18,F,NA,variable,homogeneous,3,present,0.650820970535278,1,horizontal,horizontal,1,0.905878553390503,green,3,1,557.480588344736,678.799333565612,989.501930496736,770.628304621509,989.501930496736,770.628304621509,853.017481158529,350.57236181288,557.480588344736,678.799333565612,0,0,0,0,0,0,0,0,4,NaN,NaN,NaN,vertical,horizontal,horizontal,none,none,none
1c,9,100149,3,22,150,18,F,NA,variable,homogeneous,4,absent,0.623480081558228,1,vertical,vertical,1,0.952936792373657,red,1,NaN,636.089159529932,795.341332995339,NaN,NaN,636.089159529932,795.341332995339,995.341332995339,763.910840470068,963.910840470068,404.658667004661,604.658667004661,436.089159529932,0,0,0,0,4,0,0,0,NaN,NaN,vertical,horizontal,vertical,horizontal,none,none
1c,9,100149,3,23,151,18,F,NA,variable,homogeneous,6,present,1.33766293525696,1,horizontal,horizontal,1,1.08234694957733,red,6,5,545.970351986605,622.224714400653,653.738008730483,391.116228706307,692.232343256122,831.108485694346,946.261991269517,808.883771293693,1054.0296480134,577.775285599347,907.767656743878,368.891514305654,653.738008730483,391.116228706307,545.970351986605,622.224714400653,0,0,0,0,0,4,vertical,vertical,vertical,vertical,horizontal,horizontal
1c,9,100149,3,24,152,18,F,NA,variable,homogeneous,6,present,1.07089710235596,0,horizontal,vertical,1,0.717645597457886,green,1,3,684.232422566416,827.206663668034,1054.65053136242,586.654331158049,684.232422566416,827.206663668034,938.882953928832,813.860994826083,1054.65053136242,586.654331158049,915.767577433584,372.793336331966,661.117046071168,386.139005173917,545.349468637584,613.345668841951,4,0,0,0,0,0,horizontal,vertical,horizontal,vertical,vertical,vertical
1c,9,100149,3,25,153,18,F,NA,variable,homogeneous,6,absent,1.16121912002563,1,horizontal,horizontal,1,1.03528871059418,green,1,NaN,773.345241866748,853.60308331891,NaN,NaN,773.345241866748,853.60308331891,1006.29933356561,749.885239334581,1032.95409169886,496.282156015671,826.654758133252,346.39691668109,593.700666434388,450.114760665419,567.045908301137,703.717843984329,4,0,0,0,0,0,horizontal,horizontal,vertical,horizontal,horizontal,vertical
1c,9,100149,3,26,154,18,F,NA,variable,homogeneous,4,present,0.820216178894043,1,horizontal,horizontal,1,0.776468396186829,red,2,3,1042.51941165526,678.799333565612,878.799333565612,357.480588344736,721.200666434388,842.519411655264,1042.51941165526,678.799333565612,878.799333565612,357.480588344736,557.480588344736,521.200666434388,0,0,0,0,0,4,0,0,NaN,NaN,vertical,horizontal,vertical,vertical,none,none
1c,9,100149,3,27,155,18,F,NA,variable,homogeneous,3,present,0.889012098312378,1,horizontal,horizontal,1,0.611764559745789,green,1,3,704.475318678942,836.431882914531,643.006323791957,399.057257830286,704.475318678942,836.431882914531,1052.5183575291,564.510859255183,643.006323791957,399.057257830286,0,0,0,0,0,0,4,0,0,NaN,NaN,NaN,horizontal,horizontal,horizontal,none,none,none
1c,9,100149,3,28,156,18,F,NA,variable,homogeneous,5,present,1.16843008995056,0,horizontal,vertical,1,1.08234694957733,green,4,1,688.215357568785,370.807518193712,755.719714694933,851.125977018113,755.719714694933,851.125977018113,1025.15163617903,719.715248510402,983.431649086356,422.862115532956,688.215357568785,370.807518193712,547.481642470899,635.489140744817,0,0,0,0,0,4,0,NaN,vertical,vertical,horizontal,horizontal,vertical,none
1c,9,100149,3,29,157,18,F,NA,variable,homogeneous,5,present,0.918583869934082,1,vertical,vertical,1,0.92940767288208,green,4,5,764.510859255183,347.4816424709,548.874022981887,555.719714694933,680.284751489598,825.151636179026,977.137884467044,783.431649086356,1029.19248180629,488.215357568785,764.510859255183,347.4816424709,548.874022981887,555.719714694933,0,0,0,0,0,4,0,NaN,horizontal,horizontal,horizontal,vertical,horizontal,none
1c,9,100149,3,30,158,18,F,NA,variable,homogeneous,5,absent,0.689149856567383,1,vertical,vertical,1,1.0117595911026,green,1,NaN,738.309916622085,847.425410200379,NaN,NaN,738.309916622085,847.425410200379,1016.25226451989,735.129412379467,995.341332995339,436.089159529932,704.475318678942,363.568117085469,545.621167183745,617.787900804752,0,0,4,0,0,0,0,NaN,vertical,horizontal,vertical,horizontal,horizontal,none
1c,9,100149,3,31,159,18,F,NA,variable,homogeneous,5,absent,0.700879096984863,1,horizontal,horizontal,1,1.07058238983154,green,5,NaN,588.595418998464,742.594190385041,NaN,NaN,870.287525733335,845.121732464271,1054.84466088987,608.899371659138,887.215136548046,360.378381699593,599.057257830286,443.006323791957,588.595418998464,742.594190385041,0,0,0,0,0,0,4,NaN,vertical,vertical,horizontal,vertical,horizontal,none
1c,9,100149,3,32,160,18,F,NA,variable,homogeneous,3,present,0.718108892440796,1,vertical,vertical,1,0.76470383644104,red,2,3,891.383827134052,361.936991243214,548.13947314824,639.890788585259,960.476699717708,798.172220171528,891.383827134052,361.936991243214,548.13947314824,639.890788585259,0,0,0,0,0,0,0,4,0,NaN,NaN,NaN,vertical,vertical,horizontal,none,none,none
1c,9,100149,3,33,161,18,F,NA,variable,homogeneous,3,absent,1.03442001342773,1,horizontal,horizontal,1,0.68235191822052,red,2,NaN,986.495193912888,426.090418184063,NaN,NaN,857.362518857686,848.464366520235,986.495193912888,426.090418184063,556.142287229426,525.445215295702,0,0,0,0,0,0,0,4,0,NaN,NaN,NaN,horizontal,horizontal,horizontal,none,none,none
1c,9,100149,3,34,162,18,F,NA,variable,homogeneous,5,absent,0.611281871795654,1,vertical,vertical,1,0.799997515678406,green,3,NaN,878.799333565612,357.480588344736,NaN,NaN,878.799333565612,842.519411655264,1055,600,878.799333565612,357.480588344736,593.700666434388,450.114760665419,593.700666434388,749.885239334581,0,0,0,0,4,0,0,NaN,horizontal,horizontal,vertical,horizontal,vertical,none
1c,9,100149,3,35,163,18,F,NA,variable,homogeneous,4,absent,1.32573699951172,1,horizontal,horizontal,1,0.694116477966309,green,2,NaN,1042.51941165526,521.200666434388,NaN,NaN,878.799333565612,842.519411655264,1042.51941165526,521.200666434388,721.200666434388,357.480588344736,557.480588344736,678.799333565612,0,0,0,0,0,4,0,0,NaN,NaN,vertical,horizontal,horizontal,horizontal,none,none
1c,9,100149,3,36,164,18,F,NA,variable,homogeneous,4,present,0.802083015441895,1,vertical,vertical,1,0.68235191822052,red,1,3,777.775285599347,854.029648013395,822.224714400653,345.970351986605,777.775285599347,854.029648013395,1054.0296480134,622.224714400653,822.224714400653,345.970351986605,545.970351986605,577.775285599347,0,0,0,0,4,0,0,0,NaN,NaN,vertical,horizontal,vertical,horizontal,none,none
1c,9,100149,3,37,165,18,F,NA,variable,homogeneous,6,absent,0.673166036605835,1,horizontal,horizontal,1,0.741174716949463,green,1,NaN,672.5,820.836477965032,NaN,NaN,672.5,820.836477965032,927.5,820.836477965032,1055,600,927.5,379.163522034968,672.5,379.163522034968,545,600,4,0,0,0,0,0,horizontal,vertical,vertical,horizontal,vertical,vertical
1c,9,100149,3,38,166,18,F,NA,variable,homogeneous,3,present,0.929676055908203,1,horizontal,horizontal,1,0.741174716949463,red,2,1,861.690083377915,352.574589799621,983.431649086356,777.137884467044,983.431649086356,777.137884467044,861.690083377915,352.574589799621,554.878267535729,670.287525733335,0,0,0,0,0,0,0,4,0,NaN,NaN,NaN,vertical,horizontal,horizontal,none,none,none
1c,9,100149,3,39,167,18,F,NA,variable,homogeneous,6,present,0.901417016983032,1,horizontal,horizontal,1,0.84705575466156,red,1,5,887.215136548046,839.621618300407,548.874022981887,555.719714694933,887.215136548046,839.621618300407,1051.12597701811,644.280285305067,963.910840470068,404.658667004661,712.784863451954,360.378381699593,548.874022981887,555.719714694933,636.089159529932,795.341332995339,4,0,0,0,0,0,horizontal,horizontal,vertical,horizontal,vertical,horizontal
1c,9,100149,3,40,168,18,F,NA,variable,homogeneous,6,present,0.600615978240967,1,vertical,vertical,1,1.05881783008575,green,6,2,596.34794493794,753.462830903772,1034.72873763037,699.636437764765,831.076682568313,853.099268668537,1034.72873763037,699.636437764765,1003.65205506206,446.537169096228,768.923317431687,346.900731331463,565.271262369628,500.363562235235,596.34794493794,753.462830903772,0,0,0,0,0,4,vertical,horizontal,vertical,vertical,vertical,vertical
1c,9,100149,3,41,169,18,F,NA,variable,homogeneous,3,absent,0.516813993453979,1,vertical,vertical,1,0.799997515678406,green,1,NaN,956.993676208043,800.942742169714,NaN,NaN,956.993676208043,800.942742169714,895.524681321058,363.568117085469,547.481642470899,635.489140744817,0,0,0,0,0,0,4,0,0,NaN,NaN,NaN,vertical,vertical,vertical,none,none,none
1c,9,100149,3,42,170,18,F,NA,variable,homogeneous,3,absent,0.613393068313599,1,vertical,vertical,1,0.894113993644714,red,1,NaN,923.626453162816,823.028025320546,NaN,NaN,923.626453162816,823.028025320546,931.334709102064,381.422338320961,545.03883773512,595.549636358493,0,0,0,0,0,0,4,0,0,NaN,NaN,NaN,vertical,horizontal,vertical,none,none,none
1c,9,100149,3,43,171,18,F,NA,variable,homogeneous,4,present,0.769361019134521,1,horizontal,horizontal,1,0.964701352119446,green,4,2,546.39691668109,573.345241866748,1053.60308331891,626.654758133252,773.345241866748,853.60308331891,1053.60308331891,626.654758133252,826.654758133252,346.39691668109,546.39691668109,573.345241866748,0,0,0,0,0,0,0,4,NaN,NaN,vertical,horizontal,vertical,horizontal,none,none
1c,9,100149,3,44,172,18,F,NA,variable,homogeneous,4,absent,0.599886894226074,1,horizontal,horizontal,1,0.752939276695251,red,4,NaN,553.688914296288,534.001143498857,NaN,NaN,734.001143498857,846.311085703712,1046.31108570371,665.998856501143,865.998856501143,353.688914296288,553.688914296288,534.001143498857,0,0,0,0,0,0,0,4,NaN,NaN,horizontal,vertical,horizontal,horizontal,none,none
1c,9,100149,3,45,173,18,F,NA,variable,homogeneous,4,absent,0.645534038543701,1,vertical,vertical,1,0.670587358474731,green,2,NaN,1054.84466088987,591.100628340862,NaN,NaN,808.899371659138,854.844660889869,1054.84466088987,591.100628340862,791.100628340862,345.155339110131,545.155339110131,608.899371659138,0,0,0,0,0,4,0,0,NaN,NaN,vertical,vertical,vertical,vertical,none,none
1c,9,100149,3,46,174,18,F,NA,variable,homogeneous,6,present,0.654192924499512,1,vertical,vertical,1,0.976465911865234,red,4,6,764.510859255183,347.4816424709,599.057257830286,756.993676208043,835.489140744817,852.518357529101,1036.43188291453,695.524681321058,1000.94274216971,443.006323791957,764.510859255183,347.4816424709,563.568117085469,504.475318678942,599.057257830286,756.993676208043,0,0,0,4,0,0,horizontal,vertical,vertical,vertical,horizontal,vertical
1c,9,100149,3,47,175,18,F,NA,variable,homogeneous,6,absent,1.61362099647522,1,vertical,vertical,1,0.717645597457886,red,1,NaN,708.616172865948,838.063008756786,NaN,NaN,708.616172865948,838.063008756786,960.476699717708,798.172220171528,1051.86052685176,560.109211414741,891.383827134052,361.936991243214,639.523300282292,401.827779828472,548.13947314824,639.890788585259,4,0,0,0,0,0,vertical,horizontal,horizontal,horizontal,vertical,vertical
1c,9,100149,3,48,176,18,F,NA,variable,homogeneous,5,absent,0.719958066940308,1,vertical,vertical,1,0.694116477966309,red,1,NaN,853.017481158529,849.42763818712,NaN,NaN,853.017481158529,849.42763818712,1053.60308331891,626.654758133252,903.717843984329,367.045908301137,610.498069503264,429.371695378491,579.163522034968,727.5,0,0,4,0,0,0,0,NaN,vertical,vertical,vertical,vertical,horizontal,none
1c,9,100149,3,49,177,18,F,NA,variable,homogeneous,3,present,0.915831804275513,1,horizontal,horizontal,1,1.05881783008575,red,1,2,963.910840470068,795.341332995339,887.215136548046,360.378381699593,963.910840470068,795.341332995339,887.215136548046,360.378381699593,548.874022981887,644.280285305067,0,0,0,0,0,0,4,0,0,NaN,NaN,NaN,horizontal,horizontal,horizontal,none,none,none
1c,9,100149,3,50,178,18,F,NA,variable,homogeneous,5,present,0.80264687538147,1,horizontal,horizontal,1,0.811762075424194,red,1,3,878.799333565612,842.519411655264,878.799333565612,357.480588344736,878.799333565612,842.519411655264,1055,600,878.799333565612,357.480588344736,593.700666434388,450.114760665419,593.700666434388,749.885239334581,0,0,4,0,0,0,0,NaN,horizontal,horizontal,vertical,vertical,horizontal,none
1c,9,100149,3,51,179,18,F,NA,variable,homogeneous,3,absent,1.11182594299316,1,horizontal,horizontal,1,0.84705575466156,red,1,NaN,632.704947607421,792.450942956807,NaN,NaN,632.704947607421,792.450942956807,1050.31493177915,648.656293821019,716.980120613425,358.892763222174,0,0,0,0,0,0,4,0,0,NaN,NaN,NaN,horizontal,vertical,vertical,none,none,none
1c,9,100149,3,52,180,18,F,NA,variable,homogeneous,4,absent,0.824134111404419,1,horizontal,horizontal,1,0.705881037712097,green,2,NaN,1053.09926866854,568.923317431687,NaN,NaN,831.076682568313,853.099268668537,1053.09926866854,568.923317431687,768.923317431687,346.900731331463,546.900731331463,631.076682568313,0,0,0,0,0,4,0,0,NaN,NaN,horizontal,horizontal,horizontal,horizontal,none,none
1c,9,100149,3,53,181,18,F,NA,variable,homogeneous,6,present,1.49373292922974,1,vertical,vertical,1,0.84705575466156,green,3,5,970.628304621509,410.498069503264,550.57236181288,546.982518841471,878.799333565612,842.519411655264,1049.42763818712,653.017481158529,970.628304621509,410.498069503264,721.200666434388,357.480588344736,550.57236181288,546.982518841471,629.371695378491,789.501930496736,0,0,4,0,0,0,horizontal,horizontal,vertical,vertical,horizontal,horizontal
1c,9,100149,3,54,182,18,F,NA,variable,homogeneous,5,present,NaN,0,vertical,none,0,0.623529119491577,red,4,5,576.971974679454,476.373546837184,613.504806087112,773.909581815937,907.767656743878,831.108485694346,1053.09926866854,568.923317431687,848.656293821019,349.685068220846,576.971974679454,476.373546837184,613.504806087112,773.909581815937,0,0,0,0,0,4,0,NaN,vertical,vertical,vertical,vertical,horizontal,none
1c,9,100149,3,55,183,18,F,NA,variable,homogeneous,3,absent,1.58057594299316,1,horizontal,horizontal,1,0.988230471611023,green,3,NaN,546.900731331463,631.076682568313,NaN,NaN,953.462830903772,803.65205506206,899.636437764765,365.271262369628,546.900731331463,631.076682568313,0,0,0,0,0,0,0,0,4,NaN,NaN,NaN,horizontal,horizontal,horizontal,none,none,none
1c,9,100149,3,56,184,18,F,NA,variable,homogeneous,3,present,0.701431035995483,1,vertical,vertical,1,0.858820314407349,green,2,1,1054.96116226488,604.450363641507,668.665290897936,818.577661679039,668.665290897936,818.577661679039,1054.96116226488,604.450363641507,676.373546837184,376.971974679454,0,0,0,0,0,0,0,4,0,NaN,NaN,NaN,horizontal,vertical,horizontal,none,none,none
1c,9,100149,3,57,185,18,F,NA,variable,homogeneous,3,absent,1.25553417205811,1,vertical,vertical,1,1.0117595911026,red,2,NaN,1048.46436652023,542.637481142314,NaN,NaN,725.445215295702,843.857712770574,1048.46436652023,542.637481142314,626.090418184063,413.504806087112,0,0,0,0,0,0,0,4,0,NaN,NaN,NaN,horizontal,vertical,vertical,none,none,none
1c,9,100149,3,58,186,18,F,NA,variable,homogeneous,5,present,1.00110912322998,1,vertical,vertical,1,1.0117595911026,red,1,4,692.232343256122,831.108485694346,751.343706178981,349.685068220846,692.232343256122,831.108485694346,986.495193912888,773.909581815937,1023.02802532055,476.373546837184,751.343706178981,349.685068220846,546.900731331463,568.923317431687,0,0,4,0,0,0,0,NaN,vertical,vertical,horizontal,vertical,horizontal,none
1c,9,100149,3,59,187,18,F,NA,variable,homogeneous,4,present,0.544618129730225,1,vertical,vertical,1,0.741174716949463,red,3,1,883.019879386575,358.892763222174,716.980120613425,841.107236777826,716.980120613425,841.107236777826,1041.10723677783,683.019879386575,883.019879386575,358.892763222174,558.892763222174,516.980120613425,0,0,0,0,0,0,4,0,NaN,NaN,horizontal,vertical,vertical,horizontal,none,none
1c,9,100149,3,60,188,18,F,NA,variable,homogeneous,6,present,0.76988697052002,1,horizontal,horizontal,1,0.917643113136291,green,3,2,953.462830903772,396.34794493794,1053.09926866854,631.076682568313,899.636437764765,834.728737630372,1053.09926866854,631.076682568313,953.462830903772,396.34794493794,700.363562235235,365.271262369628,546.900731331463,568.923317431687,646.537169096228,803.65205506206,0,0,4,0,0,0,vertical,horizontal,horizontal,vertical,horizontal,vertical
1c,9,100149,3,61,189,18,F,NA,variable,homogeneous,4,absent,0.655517816543579,1,vertical,vertical,1,0.905878553390503,green,4,NaN,552.574589799621,661.690083377915,NaN,NaN,861.690083377915,847.425410200379,1047.42541020038,538.309916622085,738.309916622085,352.574589799621,552.574589799621,661.690083377915,0,0,0,0,0,0,0,4,NaN,NaN,horizontal,vertical,horizontal,vertical,none,none
1c,9,100149,3,62,190,18,F,NA,variable,homogeneous,6,absent,0.625328063964844,1,vertical,vertical,1,0.635293679237366,red,6,NaN,545.349468637584,613.345668841951,NaN,NaN,684.232422566416,827.206663668034,938.882953928832,813.860994826083,1054.65053136242,586.654331158049,915.767577433584,372.793336331966,661.117046071168,386.139005173917,545.349468637584,613.345668841951,0,0,0,0,0,4,vertical,vertical,vertical,vertical,vertical,vertical
1c,9,100149,3,63,191,18,F,NA,variable,homogeneous,6,absent,0.893731832504272,1,vertical,vertical,1,0.776468396186829,green,2,NaN,1047.42541020038,661.690083377915,NaN,NaN,870.287525733335,845.121732464271,1047.42541020038,661.690083377915,977.137884467044,416.568350913644,729.712474266665,354.878267535729,552.574589799621,538.309916622085,622.862115532956,783.431649086356,0,4,0,0,0,0,horizontal,vertical,vertical,horizontal,horizontal,vertical
1c,9,100149,3,64,192,18,F,NA,variable,homogeneous,4,present,0.935652017593384,1,horizontal,horizontal,1,0.988230471611023,green,4,3,619.68777079743,780.31222920257,619.68777079743,419.68777079743,980.31222920257,780.31222920257,980.31222920257,419.68777079743,619.68777079743,419.68777079743,619.68777079743,780.31222920257,0,0,0,0,0,0,0,4,NaN,NaN,horizontal,horizontal,vertical,horizontal,none,none
1c,9,100149,4,1,193,18,F,NA,variable,homogeneous,6,present,1.02979803085327,1,vertical,vertical,1,0.647058238983154,green,6,3,568.891514305654,707.767656743878,1031.10848569435,492.232343256122,777.775285599347,854.029648013395,1008.88377129369,746.261991269517,1031.10848569435,492.232343256122,822.224714400653,345.970351986605,591.116228706307,453.738008730483,568.891514305654,707.767656743878,0,0,0,0,0,4,vertical,vertical,horizontal,horizontal,vertical,vertical
1c,9,100149,4,2,194,18,F,NA,variable,homogeneous,5,absent,0.639782905578613,1,vertical,vertical,1,0.858820314407349,red,3,NaN,1031.10848569435,492.232343256122,NaN,NaN,676.373546837184,823.028025320546,973.909581815937,786.495193912888,1031.10848569435,492.232343256122,768.923317431687,346.900731331463,549.685068220846,551.343706178981,0,0,0,0,4,0,0,NaN,vertical,vertical,vertical,vertical,vertical,none
1c,9,100149,4,3,195,18,F,NA,variable,homogeneous,3,absent,0.593512058258057,1,vertical,vertical,1,1.04705327033997,green,3,NaN,547.481642470899,564.510859255183,NaN,NaN,895.524681321058,836.431882914531,956.993676208043,399.057257830286,547.481642470899,564.510859255183,0,0,0,0,0,0,0,0,4,NaN,NaN,NaN,vertical,horizontal,vertical,none,none,none
1c,9,100149,4,4,196,18,F,NA,variable,homogeneous,5,present,0.730527877807617,1,vertical,vertical,1,0.84705575466156,green,1,4,661.117046071168,813.860994826083,786.654331158049,345.349468637584,661.117046071168,813.860994826083,960.476699717708,798.172220171528,1038.06300875679,508.616172865948,786.654331158049,345.349468637584,553.688914296288,534.001143498857,0,0,4,0,0,0,0,NaN,vertical,horizontal,vertical,horizontal,vertical,none
1c,9,100149,4,5,197,18,F,NA,variable,homogeneous,3,present,0.582363128662109,1,vertical,vertical,1,0.84705575466156,green,1,3,899.636437764765,834.728737630372,546.900731331463,568.923317431687,899.636437764765,834.728737630372,953.462830903772,396.34794493794,546.900731331463,568.923317431687,0,0,0,0,0,0,4,0,0,NaN,NaN,NaN,vertical,vertical,horizontal,none,none,none
1c,9,100149,4,6,198,18,F,NA,variable,homogeneous,6,absent,0.879841089248657,1,horizontal,horizontal,1,1.08234694957733,red,1,NaN,721.200666434388,842.519411655264,NaN,NaN,721.200666434388,842.519411655264,970.628304621509,789.501930496736,1049.42763818712,546.982518841471,878.799333565612,357.480588344736,629.371695378491,410.498069503264,550.57236181288,653.017481158529,4,0,0,0,0,0,horizontal,horizontal,horizontal,horizontal,vertical,horizontal
1c,9,100149,4,7,199,18,F,NA,variable,homogeneous,5,present,0.633446931838989,1,horizontal,horizontal,1,1.0117595911026,green,2,4,1051.86052685176,639.890788585259,619.68777079743,419.68777079743,839.890788585259,851.86052685176,1051.86052685176,639.890788585259,915.767577433584,372.793336331966,619.68777079743,419.68777079743,572.793336331966,715.767577433584,0,0,0,4,0,0,0,NaN,horizontal,horizontal,horizontal,vertical,horizontal,none
1c,9,100149,4,8,200,18,F,NA,variable,homogeneous,4,absent,0.998482942581177,1,horizontal,horizontal,1,0.999995031356812,red,2,NaN,995.341332995339,763.910840470068,NaN,NaN,636.089159529932,795.341332995339,995.341332995339,763.910840470068,963.910840470068,404.658667004661,604.658667004661,436.089159529932,0,0,0,0,0,4,0,0,NaN,NaN,vertical,horizontal,horizontal,horizontal,none,none
1c,9,100149,4,9,201,18,F,NA,variable,homogeneous,3,absent,0.622114896774292,1,vertical,vertical,1,0.976465911865234,green,1,NaN,817.787900804752,854.378832816255,NaN,NaN,817.787900804752,854.378832816255,1011.40458100154,457.40580961496,570.807518193712,488.215357568785,0,0,0,0,0,0,4,0,0,NaN,NaN,NaN,vertical,horizontal,horizontal,none,none,none
1c,9,100149,4,10,202,18,F,NA,variable,homogeneous,5,absent,0.755537033081055,1,horizontal,horizontal,1,0.84705575466156,green,3,NaN,949.885239334581,393.700666434388,NaN,NaN,800,855,1042.51941165526,678.799333565612,949.885239334581,393.700666434388,650.114760665419,393.700666434388,557.480588344736,678.799333565612,0,0,0,0,4,0,0,NaN,vertical,vertical,horizontal,horizontal,vertical,none
1c,9,100149,4,11,203,18,F,NA,variable,homogeneous,6,present,0.71100902557373,1,horizontal,horizontal,1,0.799997515678406,green,5,4,546.39691668109,573.345241866748,696.282156015671,367.045908301137,903.717843984329,832.954091698863,1053.60308331891,626.654758133252,949.885239334581,393.700666434388,696.282156015671,367.045908301137,546.39691668109,573.345241866748,650.114760665419,806.299333565612,0,0,0,0,4,0,vertical,vertical,horizontal,vertical,horizontal,horizontal
1c,9,100149,4,12,204,18,F,NA,variable,homogeneous,4,present,0.875303030014038,1,vertical,vertical,1,0.894113993644714,red,1,4,967.295052392579,792.450942956807,607.549057043193,767.295052392579,967.295052392579,792.450942956807,992.450942956807,432.704947607421,632.704947607421,407.549057043193,607.549057043193,767.295052392579,0,0,0,0,4,0,0,0,NaN,NaN,vertical,horizontal,horizontal,horizontal,none,none
1c,9,100149,4,13,205,18,F,NA,variable,homogeneous,5,absent,0.69795298576355,1,horizontal,horizontal,1,0.84705575466156,red,1,NaN,751.343706178981,850.314931779154,NaN,NaN,751.343706178981,850.314931779154,1023.02802532055,723.626453162816,986.495193912888,426.090418184063,692.232343256122,368.891514305654,546.900731331463,631.076682568313,0,0,4,0,0,0,0,NaN,horizontal,vertical,horizontal,horizontal,horizontal,none
1c,9,100149,4,14,206,18,F,NA,variable,homogeneous,4,absent,0.755336046218872,1,vertical,vertical,1,0.964701352119446,red,2,NaN,1003.65205506206,446.537169096228,NaN,NaN,953.462830903772,803.65205506206,1003.65205506206,446.537169096228,646.537169096228,396.34794493794,596.34794493794,753.462830903772,0,0,0,0,0,4,0,0,NaN,NaN,vertical,vertical,vertical,vertical,none,none
1c,9,100149,4,15,207,18,F,NA,variable,homogeneous,5,present,0.811429977416992,1,horizontal,horizontal,1,1.03528871059418,red,4,1,782.212099195248,345.621167183745,664.870587620533,816.252264519889,664.870587620533,816.252264519889,963.910840470068,795.341332995339,1036.43188291453,504.475318678942,782.212099195248,345.621167183745,552.574589799621,538.309916622085,0,0,0,0,0,4,0,NaN,horizontal,horizontal,vertical,horizontal,vertical,none
1c,9,100149,4,16,208,18,F,NA,variable,homogeneous,5,absent,0.98766303062439,1,horizontal,horizontal,1,0.999995031356812,green,4,NaN,596.34794493794,446.537169096228,NaN,NaN,874.554784704298,843.857712770574,1054.96116226488,604.450363641507,883.019879386575,358.892763222174,596.34794493794,446.537169096228,591.116228706307,746.261991269517,0,0,0,0,0,4,0,NaN,vertical,horizontal,horizontal,horizontal,horizontal,none
1c,9,100149,4,17,209,18,F,NA,variable,homogeneous,5,absent,0.846801996231079,1,horizontal,horizontal,1,0.741174716949463,red,5,NaN,619.68777079743,780.31222920257,NaN,NaN,915.767577433584,827.206663668034,1051.86052685176,560.109211414741,839.890788585259,348.13947314824,572.793336331966,484.232422566416,619.68777079743,780.31222920257,0,0,0,0,0,0,4,NaN,vertical,horizontal,vertical,horizontal,horizontal,none
1c,9,100149,4,18,210,18,F,NA,variable,homogeneous,4,absent,0.736669063568115,1,vertical,vertical,1,0.835291194915772,red,1,NaN,755.719714694933,851.125977018113,NaN,NaN,755.719714694933,851.125977018113,1051.12597701811,644.280285305067,844.280285305067,348.874022981887,548.874022981887,555.719714694933,0,0,0,0,4,0,0,0,NaN,NaN,vertical,horizontal,vertical,vertical,none,none
1c,9,100149,4,19,211,18,F,NA,variable,homogeneous,6,present,0.777534961700439,1,vertical,vertical,1,0.705881037712097,green,3,1,989.501930496736,429.371695378491,853.017481158529,849.42763818712,853.017481158529,849.42763818712,1042.51941165526,678.799333565612,989.501930496736,429.371695378491,746.982518841471,350.57236181288,557.480588344736,521.200666434388,610.498069503264,770.628304621509,0,0,4,0,0,0,vertical,vertical,vertical,horizontal,horizontal,vertical
1c,9,100149,4,20,212,18,F,NA,variable,homogeneous,4,present,0.793678045272827,1,vertical,vertical,1,0.811762075424194,green,2,1,1051.86052685176,639.890788585259,760.109211414741,851.86052685176,760.109211414741,851.86052685176,1051.86052685176,639.890788585259,839.890788585259,348.13947314824,548.13947314824,560.109211414741,0,0,0,0,0,4,0,0,NaN,NaN,vertical,vertical,vertical,vertical,none,none
1c,9,100149,4,21,213,18,F,NA,variable,homogeneous,3,absent,0.645729064941406,1,horizontal,horizontal,1,0.611764559745789,green,2,NaN,1008.88377129369,453.738008730483,NaN,NaN,822.224714400653,854.029648013395,1008.88377129369,453.738008730483,568.891514305654,492.232343256122,0,0,0,0,0,0,0,4,0,NaN,NaN,NaN,vertical,horizontal,vertical,none,none,none
1c,9,100149,4,22,214,18,F,NA,variable,homogeneous,5,absent,0.682528018951416,1,vertical,vertical,1,0.776468396186829,red,1,NaN,844.280285305067,851.125977018113,NaN,NaN,844.280285305067,851.125977018113,1052.5183575291,635.489140744817,911.784642431215,370.807518193712,616.568350913644,422.862115532956,574.848363820974,719.715248510402,0,0,4,0,0,0,0,NaN,vertical,vertical,horizontal,horizontal,horizontal,none
1c,9,100149,4,23,215,18,F,NA,variable,homogeneous,3,present,0.666626930236816,1,horizontal,horizontal,1,0.905878553390503,green,2,3,1025.15163617903,480.284751489598,583.747735480111,464.870587620533,791.100628340862,854.844660889869,1025.15163617903,480.284751489598,583.747735480111,464.870587620533,0,0,0,0,0,0,0,4,0,NaN,NaN,NaN,horizontal,horizontal,horizontal,none,none,none
1c,9,100149,4,24,216,18,F,NA,variable,homogeneous,4,present,0.748488903045654,1,vertical,vertical,1,1.02352415084839,green,1,3,878.799333565612,842.519411655264,721.200666434388,357.480588344736,878.799333565612,842.519411655264,1042.51941165526,521.200666434388,721.200666434388,357.480588344736,557.480588344736,678.799333565612,0,0,0,0,4,0,0,0,NaN,NaN,vertical,horizontal,horizontal,vertical,none,none
1c,9,100149,4,25,217,18,F,NA,variable,homogeneous,3,absent,0.690208911895752,1,horizontal,horizontal,1,0.729410157203674,green,1,NaN,664.870587620533,816.252264519889,NaN,NaN,664.870587620533,816.252264519889,1054.84466088987,608.899371659138,680.284751489598,374.848363820974,0,0,0,0,0,0,4,0,0,NaN,NaN,NaN,horizontal,vertical,horizontal,none,none,none
1c,9,100149,4,26,218,18,F,NA,variable,homogeneous,3,present,0.647564888000488,1,vertical,vertical,1,1.0117595911026,green,1,3,938.882953928832,813.860994826083,545.349468637584,613.345668841951,938.882953928832,813.860994826083,915.767577433584,372.793336331966,545.349468637584,613.345668841951,0,0,0,0,0,0,4,0,0,NaN,NaN,NaN,vertical,vertical,horizontal,none,none,none
1c,9,100149,4,27,219,18,F,NA,variable,homogeneous,5,absent,0.689496040344238,1,vertical,vertical,1,1.0117595911026,green,1,NaN,874.554784704298,843.857712770574,NaN,NaN,874.554784704298,843.857712770574,1054.96116226488,604.450363641507,883.019879386575,358.892763222174,596.34794493794,446.537169096228,591.116228706307,746.261991269517,0,0,4,0,0,0,0,NaN,vertical,vertical,vertical,vertical,horizontal,none
1c,9,100149,4,28,220,18,F,NA,variable,homogeneous,3,absent,0.792931079864502,1,horizontal,horizontal,1,1.05881783008575,red,2,NaN,998.172220171528,439.523300282291,NaN,NaN,839.890788585259,851.86052685176,998.172220171528,439.523300282291,561.936991243214,508.616172865948,0,0,0,0,0,0,0,4,0,NaN,NaN,NaN,horizontal,horizontal,vertical,none,none,none
1c,9,100149,4,29,221,18,F,NA,variable,homogeneous,4,absent,0.695677995681763,1,horizontal,horizontal,1,0.752939276695251,green,2,NaN,1054.65053136242,586.654331158049,NaN,NaN,813.345668841951,854.650531362416,1054.65053136242,586.654331158049,786.654331158049,345.349468637584,545.349468637584,613.345668841951,0,0,0,0,0,4,0,0,NaN,NaN,horizontal,horizontal,horizontal,horizontal,none,none
1c,9,100149,4,30,222,18,F,NA,variable,homogeneous,6,absent,0.740735054016113,1,vertical,vertical,1,0.92940767288208,red,2,NaN,1054.96116226488,604.450363641507,NaN,NaN,923.626453162816,823.028025320546,1054.96116226488,604.450363641507,931.334709102064,381.422338320961,676.373546837184,376.971974679454,545.03883773512,595.549636358493,668.665290897936,818.577661679039,0,4,0,0,0,0,horizontal,vertical,vertical,vertical,horizontal,vertical
1c,9,100149,4,31,223,18,F,NA,variable,homogeneous,3,present,0.723865985870361,1,horizontal,horizontal,1,0.799997515678406,green,3,1,545.621167183745,582.212099195248,911.784642431215,829.192481806288,911.784642431215,829.192481806288,942.594190385041,388.595418998464,545.621167183745,582.212099195248,0,0,0,0,0,0,0,0,4,NaN,NaN,NaN,horizontal,vertical,horizontal,none,none,none
1c,9,100149,4,32,224,18,F,NA,variable,homogeneous,6,absent,0.698014974594116,1,horizontal,horizontal,1,0.976465911865234,green,6,NaN,632.704947607421,792.450942956807,NaN,NaN,883.019879386575,841.107236777826,1050.31493177915,648.656293821019,967.295052392579,407.549057043193,716.980120613425,358.892763222174,549.685068220846,551.343706178981,632.704947607421,792.450942956807,0,0,0,0,0,4,vertical,vertical,vertical,horizontal,horizontal,horizontal
1c,9,100149,4,33,225,18,F,NA,variable,homogeneous,6,absent,1.01421499252319,1,vertical,vertical,1,0.705881037712097,green,5,NaN,568.891514305654,492.232343256122,NaN,NaN,822.224714400653,854.029648013395,1031.10848569435,707.767656743878,1008.88377129369,453.738008730483,777.775285599347,345.970351986605,568.891514305654,492.232343256122,591.116228706307,746.261991269517,0,0,0,0,4,0,vertical,vertical,vertical,vertical,vertical,vertical
1c,9,100149,4,34,226,18,F,NA,variable,homogeneous,6,absent,0.680599927902222,1,vertical,vertical,1,0.894113993644714,red,4,NaN,927.5,379.163522034968,NaN,NaN,672.5,820.836477965032,927.5,820.836477965032,1055,600,927.5,379.163522034968,672.5,379.163522034968,545,600,0,0,0,4,0,0,vertical,horizontal,vertical,vertical,vertical,horizontal
1c,9,100149,4,35,227,18,F,NA,variable,homogeneous,4,present,0.650146961212158,1,horizontal,horizontal,1,1.0117595911026,green,2,4,992.450942956807,432.704947607421,607.549057043193,767.295052392579,967.295052392579,792.450942956807,992.450942956807,432.704947607421,632.704947607421,407.549057043193,607.549057043193,767.295052392579,0,0,0,0,0,4,0,0,NaN,NaN,vertical,horizontal,horizontal,vertical,none,none
1c,9,100149,4,36,228,18,F,NA,variable,homogeneous,3,absent,0.705400943756104,1,vertical,vertical,1,1.09411150932312,red,3,NaN,548.13947314824,639.890788585259,NaN,NaN,960.476699717708,798.172220171528,891.383827134052,361.936991243214,548.13947314824,639.890788585259,0,0,0,0,0,0,0,0,4,NaN,NaN,NaN,horizontal,vertical,vertical,none,none,none
1c,9,100149,4,37,229,18,F,NA,variable,homogeneous,3,absent,0.656918048858643,1,horizontal,horizontal,1,0.658822798728943,red,2,NaN,1011.40458100154,457.40580961496,NaN,NaN,817.787900804752,854.378832816255,1011.40458100154,457.40580961496,570.807518193712,488.215357568785,0,0,0,0,0,0,0,4,0,NaN,NaN,NaN,vertical,horizontal,horizontal,none,none,none
1c,9,100149,4,38,230,18,F,NA,variable,homogeneous,3,present,0.775319814682007,1,horizontal,horizontal,1,0.647058238983154,red,3,2,561.936991243214,508.616172865948,998.172220171528,439.523300282291,839.890788585259,851.86052685176,998.172220171528,439.523300282291,561.936991243214,508.616172865948,0,0,0,0,0,0,0,0,4,NaN,NaN,NaN,horizontal,horizontal,horizontal,none,none,none
1c,9,100149,4,39,231,18,F,NA,variable,homogeneous,4,absent,0.628139019012451,1,horizontal,horizontal,1,0.84705575466156,red,4,NaN,557.480588344736,678.799333565612,NaN,NaN,878.799333565612,842.519411655264,1042.51941165526,521.200666434388,721.200666434388,357.480588344736,557.480588344736,678.799333565612,0,0,0,0,0,0,0,4,NaN,NaN,vertical,vertical,vertical,horizontal,none,none
1c,9,100149,4,40,232,18,F,NA,variable,homogeneous,5,present,0.757170915603638,1,vertical,vertical,1,0.611764559745789,green,1,2,712.784863451954,839.621618300407,1000.94274216971,756.993676208043,712.784863451954,839.621618300407,1000.94274216971,756.993676208043,1011.40458100154,457.40580961496,729.712474266665,354.878267535729,545.155339110131,591.100628340862,0,0,4,0,0,0,0,NaN,vertical,vertical,vertical,vertical,vertical,none
1c,9,100149,4,41,233,18,F,NA,variable,homogeneous,5,absent,0.648550033569336,1,vertical,vertical,1,1.02352415084839,green,3,NaN,874.554784704298,356.142287229426,NaN,NaN,883.019879386575,841.107236777826,1054.96116226488,595.549636358493,874.554784704298,356.142287229426,591.116228706307,453.738008730483,596.34794493794,753.462830903772,0,0,0,0,4,0,0,NaN,horizontal,vertical,vertical,vertical,vertical,none
1c,9,100149,4,42,234,18,F,NA,variable,homogeneous,3,present,1.57001209259033,1,horizontal,horizontal,1,1.0117595911026,red,2,1,1041.10723677783,516.980120613425,751.343706178981,850.314931779154,751.343706178981,850.314931779154,1041.10723677783,516.980120613425,607.549057043193,432.704947607421,0,0,0,0,0,0,0,4,0,NaN,NaN,NaN,vertical,horizontal,vertical,none,none,none
1c,9,100149,4,43,235,18,F,NA,variable,homogeneous,4,present,1.17066788673401,1,horizontal,horizontal,1,1.04705327033997,red,1,4,874.554784704298,843.857712770574,556.142287229426,674.554784704298,874.554784704298,843.857712770574,1043.85771277057,525.445215295702,725.445215295702,356.142287229426,556.142287229426,674.554784704298,0,0,0,0,4,0,0,0,NaN,NaN,horizontal,horizontal,horizontal,vertical,none,none
1c,9,100149,4,44,236,18,F,NA,variable,homogeneous,6,present,1.60330700874329,1,horizontal,horizontal,1,0.647058238983154,green,2,5,1016.25226451989,735.129412379467,583.747735480111,464.870587620533,791.100628340862,854.844660889869,1016.25226451989,735.129412379467,1025.15163617903,480.284751489598,808.899371659138,345.155339110131,583.747735480111,464.870587620533,574.848363820974,719.715248510402,0,4,0,0,0,0,vertical,horizontal,horizontal,vertical,vertical,vertical
1c,9,100149,4,45,237,18,F,NA,variable,homogeneous,4,absent,0.768455982208252,1,vertical,vertical,1,0.647058238983154,green,4,NaN,601.827779828472,439.523300282291,NaN,NaN,639.523300282292,798.172220171528,998.172220171528,760.476699717708,960.476699717708,401.827779828472,601.827779828472,439.523300282291,0,0,0,0,0,0,0,4,NaN,NaN,horizontal,horizontal,horizontal,vertical,none,none
1c,9,100149,4,46,238,18,F,NA,variable,homogeneous,5,present,0.729475975036621,1,horizontal,horizontal,1,0.670587358474731,green,2,4,1016.25226451989,735.129412379467,704.475318678942,363.568117085469,738.309916622085,847.425410200379,1016.25226451989,735.129412379467,995.341332995339,436.089159529932,704.475318678942,363.568117085469,545.621167183745,617.787900804752,0,0,0,4,0,0,0,NaN,vertical,horizontal,horizontal,vertical,vertical,none
1c,9,100149,4,47,239,18,F,NA,variable,homogeneous,5,present,1.23662090301514,1,vertical,vertical,1,1.02352415084839,red,3,2,1034.72873763037,500.363562235235,967.295052392579,792.450942956807,668.665290897936,818.577661679039,967.295052392579,792.450942956807,1034.72873763037,500.363562235235,777.775285599347,345.970351986605,551.535633479765,542.637481142314,0,0,0,0,4,0,0,NaN,horizontal,horizontal,vertical,vertical,horizontal,none
1c,9,100149,4,48,240,18,F,NA,variable,homogeneous,5,present,1.64687085151672,1,horizontal,horizontal,1,0.647058238983154,red,2,5,980.31222920257,780.31222920257,548.13947314824,560.109211414741,684.232422566416,827.206663668034,980.31222920257,780.31222920257,1027.20666366803,484.232422566416,760.109211414741,348.13947314824,548.13947314824,560.109211414741,0,0,0,4,0,0,0,NaN,vertical,horizontal,vertical,vertical,horizontal,none
1c,9,100149,4,49,241,18,F,NA,variable,homogeneous,3,present,0.766212940216064,1,vertical,vertical,1,0.917643113136291,red,3,1,547.481642470899,564.510859255183,895.524681321058,836.431882914531,895.524681321058,836.431882914531,956.993676208043,399.057257830286,547.481642470899,564.510859255183,0,0,0,0,0,0,0,0,4,NaN,NaN,NaN,horizontal,vertical,vertical,none,none,none
1c,9,100149,4,50,242,18,F,NA,variable,homogeneous,6,present,1.30508494377136,1,horizontal,horizontal,1,0.76470383644104,red,4,3,704.475318678942,363.568117085469,956.993676208043,399.057257830286,895.524681321058,836.431882914531,1052.5183575291,635.489140744817,956.993676208043,399.057257830286,704.475318678942,363.568117085469,547.481642470899,564.510859255183,643.006323791957,800.942742169714,0,0,0,4,0,0,vertical,vertical,horizontal,horizontal,vertical,vertical
1c,9,100149,4,51,243,18,F,NA,variable,homogeneous,4,absent,0.825996160507202,1,horizontal,horizontal,1,0.729410157203674,green,2,NaN,1029.19248180629,488.215357568785,NaN,NaN,911.784642431215,829.192481806288,1029.19248180629,488.215357568785,688.215357568785,370.807518193712,570.807518193712,711.784642431215,0,0,0,0,0,4,0,0,NaN,NaN,vertical,horizontal,vertical,horizontal,none,none
1c,9,100149,4,52,244,18,F,NA,variable,homogeneous,6,present,1.11244583129883,1,horizontal,horizontal,1,0.894113993644714,red,3,6,1051.86052685176,560.109211414741,548.13947314824,639.890788585259,708.616172865948,838.063008756786,960.476699717708,798.172220171528,1051.86052685176,560.109211414741,891.383827134052,361.936991243214,639.523300282292,401.827779828472,548.13947314824,639.890788585259,0,0,4,0,0,0,horizontal,horizontal,horizontal,vertical,horizontal,horizontal
